frame,timestamp,acc x (m/s^2),acc y (m/s^2),acc z (m/s^2),gyro x (rad/s),gyro y (rad/s),gyro z (rad/s),x (Ground truth),y (Ground truth),z (Ground truth),yaw (Ground Truth),pitch (Ground Truth),roll (Ground Truth)
268,11.673167319655477,0.0,-0.0,0.010000228881835938,-0.0,-0.0,-0.0,-23.83699607849121,57.742576599121094,0.09412002563476562,-0.5967352390289307,-0.0,0.0
269,11.68316731943196,0.0,-0.0,0.01007843017578125,-0.0,-0.0,-0.0,-23.83699607849121,57.742576599121094,0.0902000442147255,-0.5967352390289307,-0.0,0.0
270,11.693167319208442,0.0,-0.0,0.009688377380371094,-0.0,-0.0,-0.0,-23.83699607849121,57.742576599121094,0.0853000208735466,-0.5967352390289307,-0.0,0.0
271,11.703167318984924,0.0,-0.0,0.01007843017578125,-0.0,-0.0,-0.0,-23.83699607849121,57.742576599121094,0.07942001521587372,-0.5967352390289307,-0.0,0.0
272,11.713167318761407,0.0,-0.0,3.618281841278076,7.7650802268181e-06,3.178376573487185e-06,3.0531827744208553e-14,-23.83699607849121,57.742576599121094,0.07292083650827408,-0.5967352390289307,-0.0,0.0
273,11.72316731853789,0.0,-0.0,15.623672485351562,3.750699761440046e-06,2.2495132725453004e-06,1.2184064868137057e-10,-23.83699607849121,57.742576599121094,0.06700301915407181,-0.5967352390289307,-0.0,0.0
274,11.733167318314372,0.0,-0.0,14.684375762939453,2.443597850287915e-06,1.643856421651435e-06,-1.0740580647095044e-10,-23.83699607849121,57.742576599121094,0.06157264485955238,-0.5967352390289307,-0.0,0.0
275,11.743167318090855,0.0,-0.0,14.286523818969727,2.614655841171043e-06,1.7131281992988079e-06,-1.3497272743911992e-11,-23.83699607849121,57.742576599121094,0.05658992752432823,-0.5967352390289307,-0.0,0.0
276,11.753167317867337,0.0,-0.0,13.921133041381836,2.7224903078604257e-06,1.0610725666992948e-06,-7.433138826673513e-11,-23.83699607849121,57.742576599121094,0.05201831832528114,-0.5967352390289307,-0.0,0.0
277,11.76316731764382,0.0,-0.0,13.585039138793945,2.185208131777472e-06,1.4418425280382507e-06,-1.7120194151232226e-12,-23.83699607849121,57.742576599121094,0.04782421141862869,-0.5967352390289307,-0.0,0.0
278,11.773167317420302,0.0,-0.0,13.276406288146973,7.286172376552713e-07,7.604398319926986e-07,-1.2578188490763864e-10,-23.83699607849121,57.742576599121094,0.04397674277424812,-0.5967352390289307,-0.0,0.0
279,11.783167317196785,0.0,-0.0,12.992578506469727,7.931242862468935e-07,6.132611218845341e-08,-7.77586744993286e-11,-23.83699607849121,57.742576599121094,0.04044754058122635,-0.5967352390289307,-0.0,0.0
280,11.793167316973268,0.0,-0.0,12.731719017028809,2.409251919743838e-06,7.753292265988421e-07,8.590683719944536e-12,-23.83699607849121,57.742576599121094,0.03721050173044205,-0.5967352390289307,-0.0,0.0
281,11.80316731674975,0.0,-0.0,12.492071151733398,1.549242256260186e-06,4.2790372845047386e-07,-1.4355683308764355e-11,-23.83699607849121,57.742576599121094,0.034241676330566406,-0.5967352390289307,-0.0,0.0
282,11.813167316526233,0.0,-0.0,12.272031784057617,4.713156798175078e-08,4.247232823217928e-07,-8.383221894447956e-11,-23.83699607849121,57.742576599121094,0.031519051641225815,-0.5967352390289307,-0.0,0.0
283,11.823167316302715,0.0,-0.0,12.069063186645508,2.5343076970330003e-08,4.172288754489273e-07,2.956943023768588e-11,-23.83699607849121,57.742576599121094,0.029022330418229103,-0.5967352390289307,-0.0,0.0
284,11.833167316079198,0.0,-0.0,11.883652687072754,3.2773861846635555e-08,-2.939217722541798e-07,-9.146919333069548e-11,-23.83699607849121,57.742576599121094,0.026732977479696274,-0.5967352390289307,-0.0,0.0
285,11.84316731585568,0.0,-0.0,11.712793350219727,9.053036933437397e-07,2.992910097532331e-08,6.809608432689629e-12,-23.83699607849121,57.742576599121094,0.024633903056383133,-0.5967352390289307,-0.0,0.0
286,11.853167315632163,0.0,-0.0,11.555976867675781,-3.485548072390543e-09,3.664115695301007e-07,-2.5266178038663156e-12,-23.83699607849121,57.742576599121094,0.022709425538778305,-0.5967352390289307,-0.0,0.0
287,11.863167315408646,0.0,-0.0,11.41177749633789,-3.359199496344445e-08,3.5332789138919907e-07,-8.051219413385269e-12,-23.83699607849121,57.742576599121094,0.020945128053426743,-0.5967352390289307,-0.0,0.0
288,11.873167315185128,0.0,-0.0,11.279824256896973,-7.17093655566714e-08,3.31751493831689e-07,-4.242491774553159e-12,-23.83699607849121,57.742576599121094,0.019327811896800995,-0.5967352390289307,-0.0,0.0
289,11.88316731496161,0.0,-0.0,11.158105850219727,-7.590401764900889e-07,-4.15617833482429e-08,-8.236072934764138e-11,-23.83699607849121,57.742576599121094,0.017845306545495987,-0.5967352390289307,-0.0,0.0
290,11.893167314738093,0.0,-0.0,11.046719551086426,-1.4593071284707548e-07,2.8195009349474276e-07,8.519335237267e-11,-23.83699607849121,57.742576599121094,0.016486473381519318,-0.5967352390289307,-0.0,0.0
291,11.903167314514576,0.0,-0.0,10.944501876831055,-8.106400741780817e-07,-8.855498379034543e-08,-5.752276432957615e-11,-23.83699607849121,57.742576599121094,0.015241088345646858,-0.5967352390289307,-0.0,0.0
292,11.913167314291059,0.0,-0.0,10.850263595581055,7.214581501102657e-07,-8.258268735517049e-07,-6.255243545361111e-11,-23.83699607849121,57.742576599121094,0.014099731110036373,-0.5967352390289307,-0.0,0.0
293,11.923167314067541,0.0,-0.0,10.764433860778809,-1.9640390291897347e-07,2.0005150247470738e-07,1.1335160587933046e-10,-23.83699607849121,57.742576599121094,0.013053817674517632,-0.5967352390289307,-0.0,0.0
294,11.933167313844024,0.0,-0.0,10.684717178344727,6.806061492170556e-07,-1.6119862777941307e-07,7.520928324566967e-13,-23.83699607849121,57.742576599121094,0.01209537498652935,-0.5967352390289307,-0.0,0.0
295,11.943167313620506,0.0,-0.0,10.612607955932617,-2.154162075385102e-07,1.6390141865940677e-07,-4.803407671616355e-12,-23.83699607849121,57.742576599121094,0.011217193678021431,-0.5967352390289307,-0.0,0.0
296,11.953167313396989,0.0,-0.0,10.545478820800781,6.460492159021669e-07,-2.0538944056625041e-07,1.3424150679952618e-11,-23.83699607849121,57.742576599121094,0.010412558913230896,-0.5967352390289307,-0.0,0.0
297,11.963167313173471,0.0,-0.0,10.484434127807617,-2.495494300092105e-07,-5.622399612548179e-07,-5.745429132453239e-11,-23.83699607849121,57.742576599121094,0.009675368666648865,-0.5967352390289307,-0.0,0.0
298,11.973167312949954,0.0,-0.0,10.428369522094727,-2.7578673211792193e-07,1.343392028729795e-07,5.095294325352384e-11,-23.83699607849121,57.742576599121094,0.009000015445053577,-0.5967352390289307,-0.0,0.0
299,11.983167312726437,0.0,-0.0,10.376855850219727,5.807262937196356e-07,-2.1653279702604777e-07,-3.3365737256429995e-11,-23.83699607849121,57.742576599121094,0.008381347171962261,-0.5967352390289307,-0.0,0.0
300,11.99316731250292,0.0,-0.0,10.329946517944336,-3.490261519800697e-07,1.1568525337679603e-07,5.880088083110024e-11,-23.83699607849121,57.742576599121094,0.007814674638211727,-0.5967352390289307,-0.0,0.0
301,12.003167312279402,0.0,-0.0,10.2860746383667,5.407209187069384e-07,-2.541251831189584e-07,-5.447590989415829e-11,-23.83699607849121,57.742576599121094,0.0072956085205078125,-0.5967352390289307,-0.0,0.0
302,12.013167312055884,0.0,-0.0,10.2464017868042,5.324808398654568e-07,-2.5884273213705455e-07,-2.419792144436883e-11,-23.83699607849121,57.742576599121094,0.006820182781666517,-0.5967352390289307,-0.0,0.0
303,12.023167311832367,0.0,-0.0,10.210165977478027,-3.7248187823024637e-07,8.278866658883999e-08,-3.0702385078740235e-11,-23.83699607849121,57.742576599121094,0.006384773179888725,-0.5967352390289307,-0.0,0.0
304,12.03316731160885,0.0,-0.0,10.176587104797363,-1.811968530773811e-07,7.719111749793228e-08,-5.4846353153559235e-12,-23.83699607849121,57.742576599121094,0.005986022762954235,-0.5967352390289307,-0.0,0.0
305,12.043167311385332,0.0,-0.0,10.1456937789917,-4.261448509623733e-07,7.963663506416196e-08,-1.2786147141063964e-11,-23.83699607849121,57.742576599121094,0.00562084186822176,-0.5967352390289307,-0.0,0.0
306,12.053167311161815,0.0,-0.0,10.118232727050781,4.269055580152781e-07,-2.7788885859081347e-07,1.4800549674731656e-11,-23.83699607849121,57.742576599121094,0.005286483559757471,-0.5967352390289307,-0.0,0.0
307,12.063167310938297,0.0,-0.0,10.091904640197754,-2.5015404503392347e-07,6.694876475421552e-08,4.740301207117881e-11,-23.83699607849121,57.742576599121094,0.004980315919965506,-0.5967352390289307,-0.0,0.0
308,12.07316731071478,0.0,-0.0,10.068252563476562,-2.522126862913865e-07,6.887773906782968e-08,-2.4908991536065628e-11,-23.83699607849121,57.742576599121094,0.004699973855167627,-0.5967352390289307,-0.0,0.0
309,12.083167310491262,0.0,-0.0,10.046895027160645,3.888582114086603e-07,-2.829716834185092e-07,-3.8005522340345266e-11,-23.83699607849121,57.742576599121094,0.004443320911377668,-0.5967352390289307,-0.0,0.0
310,12.093167310267745,0.0,-0.0,10.0266752243042,-5.281777362142748e-07,6.900607729676267e-08,2.3120380610031077e-11,-23.83699607849121,57.742576599121094,0.004208335652947426,-0.5967352390289307,-0.0,0.0
311,12.103167310044228,0.0,-0.0,10.008745193481445,-5.586188649431278e-07,6.533122132168501e-08,3.717057217578201e-11,-23.83699607849121,57.742576599121094,0.003993224818259478,-0.5967352390289307,-0.0,0.0
312,12.11316730982071,0.0,-0.0,9.991963386535645,3.1995855920285976e-07,-2.9695945613639196e-07,-1.3762602169009597e-12,-23.83699607849121,57.742576599121094,0.0037963103968650103,-0.5967352390289307,-0.0,0.0
313,12.123167309597193,0.0,-0.0,9.976699829101562,3.215347703644511e-07,3.9531633433398383e-07,6.769335092471351e-11,-23.83699607849121,57.742576599121094,0.003616065951064229,-0.5967352390289307,-0.0,0.0
314,12.133167309373675,0.0,-0.0,9.962591171264648,-5.641642815135128e-07,4.6063572511911843e-08,-7.066308649328334e-11,-23.83699607849121,57.742576599121094,0.0034510802943259478,-0.5967352390289307,-0.0,0.0
315,12.143167309150158,0.0,-0.0,9.950000762939453,-5.808403216178704e-07,4.2310364989361915e-08,-1.8070114848889318e-11,-23.83699607849121,57.742576599121094,0.00330009451135993,-0.5967352390289307,-0.0,0.0
316,12.15316730892664,0.0,-0.0,9.937790870666504,-6.133653869255795e-07,4.4254154119016675e-08,7.29787896780465e-11,-23.83699607849121,57.742576599121094,0.0031618881039321423,-0.5967352390289307,-0.0,0.0
317,12.163167308703123,0.0,-0.0,9.92749309539795,-6.080055072743562e-07,3.907434731331705e-08,-2.8553687192456323e-11,-23.83699607849121,57.742576599121094,0.003035430796444416,-0.5967352390289307,-0.0,0.0
318,12.173167308479606,0.0,-0.0,9.917192459106445,9.363407116325106e-07,3.366142209415557e-08,-2.605130000610245e-11,-23.83699607849121,57.742576599121094,0.002919693011790514,-0.5967352390289307,-0.0,0.0
319,12.183167308256088,0.0,-0.0,9.90842056274414,2.6299764499526646e-07,-3.1850370874053624e-07,7.266243162717956e-12,-23.83699607849121,57.742576599121094,0.002813796978443861,-0.5967352390289307,-0.0,0.0
320,12.19316730803257,0.0,-0.0,9.900030136108398,-6.205284535099054e-07,3.010666560498976e-08,6.576481026421277e-11,-23.83699607849121,57.742576599121094,0.0027169035747647285,-0.5967352390289307,-0.0,0.0
321,12.203167307809053,0.0,-0.0,9.892012596130371,-6.211694767443987e-07,3.1081615503580906e-08,5.171157946293192e-11,-23.83699607849121,57.742576599121094,0.0026282118633389473,-0.5967352390289307,-0.0,0.0
322,12.213167307585536,0.0,-0.0,9.88553237915039,2.844181778982602e-07,-3.175964593538083e-07,-6.201250624116028e-11,-23.83699607849121,57.742576599121094,0.0025470734108239412,-0.5967352390289307,-0.0,0.0
323,12.223167307362019,0.0,-0.0,9.879048347473145,-6.123771072452655e-07,2.7283817871648353e-08,-1.337485677765926e-12,-23.83699607849121,57.742576599121094,0.002472839318215847,-0.5967352390289307,-0.0,0.0
324,12.233167307138501,0.0,-0.0,9.873323440551758,9.067023825082288e-07,3.041712304252542e-08,6.391426277119194e-11,-23.83699607849121,57.742576599121094,0.0024049377534538507,-0.5967352390289307,-0.0,0.0
325,12.243167306914984,0.0,-0.0,9.867603302001953,-6.141761446087912e-07,3.1541134148938e-08,-6.915157335640743e-11,-23.83699607849121,57.742576599121094,0.0023427961859852076,-0.5967352390289307,-0.0,0.0
326,12.253167306691466,0.0,-0.0,9.863022804260254,-6.142020083643729e-07,3.250019275924387e-08,-2.2208734851147938e-11,-23.83699607849121,57.742576599121094,0.0022859573364257812,-0.5967352390289307,-0.0,0.0
327,12.263167306467949,0.0,-0.0,9.858448028564453,8.985417139228957e-07,3.514701774065543e-08,6.794903528728469e-11,-23.83699607849121,57.742576599121094,0.002233962994068861,-0.5967352390289307,-0.0,0.0
328,12.273167306244432,0.0,-0.0,9.854634284973145,9.12123141461052e-07,3.5588758606763804e-08,2.175140623172922e-11,-23.83699607849121,57.742576599121094,0.002186431782320142,-0.5967352390289307,-0.0,0.0
329,12.283167306020914,0.0,-0.0,9.850435256958008,2.656884419138805e-07,-3.142825732993515e-07,-1.395936144454879e-11,-23.83699607849121,57.742576599121094,0.002142944373190403,-0.5967352390289307,-0.0,0.0
330,12.293167305797397,0.0,-0.0,9.847002029418945,9.724340088723693e-07,4.061721270431917e-08,-3.278571858444934e-11,-23.83699607849121,57.742576599121094,0.0021031571086496115,-0.5967352390289307,-0.0,0.0
331,12.30316730557388,0.0,-0.0,9.84433364868164,-5.815794565933174e-07,3.9482916491806463e-08,-4.5318193642174265e-11,-23.83699607849121,57.742576599121094,0.0020668029319494963,-0.5967352390289307,-0.0,0.0
332,12.313167305350362,0.0,-0.0,9.840898513793945,-5.965600280433137e-07,4.51712409699212e-08,-1.579059105694114e-11,-23.83699607849121,57.742576599121094,0.0020335388835519552,-0.5967352390289307,-0.0,0.0
333,12.323167305126844,0.0,-0.0,9.838611602783203,-6.304294402070809e-07,4.710923562356584e-08,6.286920983811228e-11,-23.83699607849121,57.742576599121094,0.0020031356252729893,-0.5967352390289307,-0.0,0.0
334,12.333167304903327,0.0,-0.0,9.835556983947754,-6.216871497599641e-07,4.7097159949771594e-08,4.769545869365288e-11,-23.83699607849121,57.742576599121094,0.0019752883818000555,-0.5967352390289307,-0.0,0.0
335,12.34316730467981,0.0,-0.0,9.83403491973877,9.323251788373454e-07,4.825524868579123e-08,4.6587400603925744e-11,-23.83699607849121,57.742576599121094,0.0019498442998155951,-0.5967352390289307,-0.0,0.0
336,12.353167304456292,0.0,-0.0,9.831743240356445,9.713284043755266e-07,4.6776513329405134e-08,-6.158473730977221e-11,-23.83699607849121,57.742576599121094,0.0019265746232122183,-0.5967352390289307,-0.0,0.0
337,12.363167304232775,0.0,-0.0,9.830219268798828,-5.896462198506924e-07,4.0911704246582303e-08,-4.373554296499549e-11,-23.83699607849121,57.742576599121094,0.0019053268479183316,-0.5967352390289307,-0.0,0.0
338,12.373167304009257,0.0,-0.0,9.827927589416504,-6.007205683999928e-07,4.1889784085924475e-08,-1.5153475696472185e-11,-23.83699607849121,57.742576599121094,0.0018858718685805798,-0.5967352390289307,-0.0,0.0
339,12.38316730378574,0.0,-0.0,9.826787948608398,9.160224294646468e-07,4.358497918133253e-08,6.874173452686705e-11,-23.83699607849121,57.742576599121094,0.0018680953653529286,-0.5967352390289307,-0.0,0.0
340,12.393167303562223,0.0,-0.0,9.987764358520508,-0.0,-0.0,-0.0,-23.83699607849121,57.742576599121094,0.0018680953653529286,-0.5967352390289307,-0.0,0.0
341,12.403167303338705,0.0,-0.0,9.8100004196167,-0.0,-0.0,-0.0,-23.83699607849121,57.742576599121094,0.0018680953653529286,-0.5967352390289307,-0.0,0.0
342,12.413167303115188,0.0,-0.0,9.8100004196167,-0.0,-0.0,-0.0,-23.83699607849121,57.742576599121094,0.0018680953653529286,-0.5967352390289307,-0.0,0.0
343,12.42316730289167,0.0,-0.0,9.8100004196167,-0.0,-0.0,-0.0,-23.83699607849121,57.742576599121094,0.0018680953653529286,-0.5967352390289307,-0.0,0.0
344,12.433167302668153,0.0,-0.0,9.8100004196167,-0.0,-0.0,-0.0,-23.83699607849121,57.742576599121094,0.0018680953653529286,-0.5967352390289307,-0.0,0.0
345,12.443167302444635,0.0,-0.0,9.8100004196167,-0.0,-0.0,-0.0,-23.83699607849121,57.742576599121094,0.0018680953653529286,-0.5967352390289307,-0.0,0.0
346,12.453167302221118,0.0,-0.0,9.8100004196167,-0.0,-0.0,-0.0,-23.83699607849121,57.742576599121094,0.0018680953653529286,-0.5967352390289307,-0.0,0.0
347,12.4631673019976,0.0,-0.0,9.8100004196167,-0.0,-0.0,-0.0,-23.83699607849121,57.742576599121094,0.0018680953653529286,-0.5967352390289307,-0.0,0.0
348,12.473167301774083,0.0,-0.0,9.8100004196167,-0.0,-0.0,-0.0,-23.83699607849121,57.742576599121094,0.0018680953653529286,-0.5967352390289307,-0.0,0.0
349,12.483167301550566,0.0,-0.0,9.8100004196167,-0.0,-0.0,-0.0,-23.83699607849121,57.742576599121094,0.0018680953653529286,-0.5967352390289307,-0.0,0.0
350,12.493167301327048,0.0,-0.0,9.8100004196167,-0.0,-0.0,-0.0,-23.83699607849121,57.742576599121094,0.0018680953653529286,-0.5967352390289307,-0.0,0.0
351,12.503167301103531,0.0,-0.0,9.8100004196167,-0.0,-0.0,-0.0,-23.83699607849121,57.742576599121094,0.0018680953653529286,-0.5967352390289307,-0.0,0.0
352,12.513167300880013,0.0,-0.0,9.8100004196167,-0.0,-0.0,-0.0,-23.83699607849121,57.742576599121094,0.0018680953653529286,-0.5967352390289307,-0.0,0.0
353,12.523167300656496,0.0,-0.0,9.8100004196167,-0.0,-0.0,-0.0,-23.83699607849121,57.742576599121094,0.0018680953653529286,-0.5967352390289307,-0.0,0.0
354,12.533167300432979,0.0,-0.0,9.8100004196167,-0.0,-0.0,-0.0,-23.83699607849121,57.742576599121094,0.0018680953653529286,-0.5967352390289307,-0.0,0.0
355,12.543167300209461,0.0,-0.0,9.8100004196167,-0.0,-0.0,-0.0,-23.83699607849121,57.742576599121094,0.0018680953653529286,-0.5967352390289307,-0.0,0.0
356,12.553167299985944,0.0,-0.0,9.8100004196167,-0.0,-0.0,-0.0,-23.83699607849121,57.742576599121094,0.0018680953653529286,-0.5967352390289307,-0.0,0.0
357,12.563167299762426,0.0,-0.0,9.8100004196167,-0.0,-0.0,-0.0,-23.83699607849121,57.742576599121094,0.0018680953653529286,-0.5967352390289307,-0.0,0.0
358,12.573167299538909,0.0,-0.0,9.8100004196167,-0.0,-0.0,-0.0,-23.83699607849121,57.742576599121094,0.0018680953653529286,-0.5967352390289307,-0.0,0.0
359,12.583167299315392,0.0,-0.0,9.8100004196167,-0.0,-0.0,-0.0,-23.83699607849121,57.742576599121094,0.0018680953653529286,-0.5967352390289307,-0.0,0.0
360,12.593167299091874,0.0,-0.0,9.8100004196167,-0.0,-0.0,-0.0,-23.83699607849121,57.742576599121094,0.0018680953653529286,-0.5967352390289307,-0.0,0.0
361,12.603167298868357,0.0,-0.0,9.8100004196167,-0.0,-0.0,-0.0,-23.83699607849121,57.742576599121094,0.0018680953653529286,-0.5967352390289307,-0.0,0.0
362,12.61316729864484,0.0,-0.0,9.8100004196167,-0.0,-0.0,-0.0,-23.83699607849121,57.742576599121094,0.0018680953653529286,-0.5967352390289307,-0.0,0.0
363,12.623167298421322,0.0,-0.0,9.8100004196167,-0.0,-0.0,-0.0,-23.83699607849121,57.742576599121094,0.0018680953653529286,-0.5967352390289307,-0.0,0.0
364,12.633167298197804,0.0,-0.0,9.8100004196167,-0.0,-0.0,-0.0,-23.83699607849121,57.742576599121094,0.0018680953653529286,-0.5967352390289307,-0.0,0.0
365,12.643167297974287,0.0,-0.0,9.8100004196167,-0.0,-0.0,-0.0,-23.83699607849121,57.742576599121094,0.0018680953653529286,-0.5967352390289307,-0.0,0.0
366,12.65316729775077,0.0,-0.0,9.8100004196167,-0.0,-0.0,-0.0,-23.83699607849121,57.742576599121094,0.0018680953653529286,-0.5967352390289307,-0.0,0.0
367,12.663167297527252,0.0,-0.0,9.8100004196167,-0.0,-0.0,-0.0,-23.83699607849121,57.742576599121094,0.0018680953653529286,-0.5967352390289307,-0.0,0.0
368,12.673167297303735,0.0,-0.0,9.8100004196167,-0.0,-0.0,-0.0,-23.83699607849121,57.742576599121094,0.0018680953653529286,-0.5967352390289307,-0.0,0.0
369,12.683167297080217,0.0,-0.0,9.187822341918945,8.487196510031936e-07,-3.561056018952513e-07,1.7068402247133463e-11,-23.83699607849121,57.742576599121094,0.0018058776622638106,-0.5967352390289307,-0.0,0.0
370,12.6931672968567,0.0,-0.0,9.90536880493164,-4.779303353075193e-08,-7.461009587927947e-09,-5.357103649572537e-13,-23.83699607849121,57.742576599121094,0.0017531967023387551,-0.5967352390289307,-0.0,0.0
371,12.703167296633183,0.0,-0.0,9.893540382385254,1.590666443007649e-07,-6.017662368407173e-09,2.550827604697048e-12,-23.83699607849121,57.742576599121094,0.0017088699387386441,-0.5967352390289307,-0.0,0.0
372,12.713167296409665,0.0,-0.0,9.883245468139648,1.3390018693826278e-07,-4.547660914511198e-09,5.324775342874233e-12,-23.83699607849121,57.742576599121094,0.001671867328695953,-0.5967352390289307,-0.0,0.0
373,12.723167296186148,0.0,-0.0,9.872941017150879,-1.203216442036137e-07,-2.5535888958927444e-09,1.2734769835875959e-12,-23.83699607849121,57.742576599121094,0.0016411590622738004,-0.5967352390289307,-0.0,0.0
374,12.73316729596263,0.0,-0.0,9.865314483642578,7.84559617272862e-08,-1.121026604877784e-09,5.803069830223606e-12,-23.83699607849121,57.742576599121094,0.001615982037037611,-0.5967352390289307,-0.0,0.0
375,12.743167295739113,0.0,-0.0,9.857685089111328,-1.7202839330821007e-07,-5.470431330145686e-10,-9.039831383450547e-12,-23.83699607849121,57.742576599121094,0.001595573383383453,-0.5967352390289307,-0.0,0.0
376,12.753167295515595,0.0,-0.0,9.851198196411133,-2.1343305434129434e-07,8.015118346804684e-09,4.4099918161677465e-11,-23.83699607849121,57.742576599121094,0.00157928466796875,-0.5967352390289307,-0.0,0.0
377,12.763167295292078,0.0,-0.0,9.845478057861328,-2.241728651597441e-07,1.2751918632147863e-08,-6.34416130740334e-12,-23.83699607849121,57.742576599121094,0.0015665435930714011,-0.5967352390289307,-0.0,0.0
378,12.77316729506856,0.0,-0.0,9.840898513793945,-2.3838479989990446e-07,1.2323121190149777e-08,-1.219170597810404e-11,-23.83699607849121,57.742576599121094,0.0015568924136459827,-0.5967352390289307,-0.0,0.0
379,12.783167294845043,0.0,-0.0,9.835941314697266,-2.753142780420603e-07,1.2862619414022447e-08,3.8283043402032035e-11,-23.83699607849121,57.742576599121094,0.0015498352004215121,-0.5967352390289307,-0.0,0.0
380,12.793167294621526,0.0,-0.0,9.832124710083008,6.068821107874101e-07,-3.395418275431439e-07,-6.525779916444208e-12,-23.83699607849121,57.742576599121094,0.0015449904603883624,-0.5967352390289307,-0.0,0.0
381,12.803167294398008,0.0,-0.0,9.82907485961914,-5.5477247684621034e-08,1.84501978139906e-08,3.47341808093482e-11,-23.83699607849121,57.742576599121094,0.001542053185403347,-0.5967352390289307,-0.0,0.0
382,12.813167294174491,0.0,-0.0,9.825639724731445,-2.731892436713679e-07,2.416916089487131e-08,-3.530303827048442e-11,-23.83699607849121,57.742576599121094,0.0015406799502670765,-0.5967352390289307,-0.0,0.0
383,12.823167293950974,0.0,-0.0,9.82373332977295,5.936378215665172e-07,3.8859090523146733e-07,5.843553418927172e-11,-23.83699607849121,57.742576599121094,0.0015406799502670765,-0.5967352390289307,-0.0,0.0
384,12.833167293727456,0.0,-0.0,9.820301055908203,6.016024372001993e-07,-3.107557517978421e-07,-9.274492285271663e-11,-23.83699607849121,57.742576599121094,0.0015417098766192794,-0.5967352390289307,-0.0,0.0
385,12.843167293503939,0.0,-0.0,9.819536209106445,-3.117554285836377e-07,3.8366334109696254e-08,8.146538998943242e-12,-23.83699607849121,57.742576599121094,0.0015436934772878885,-0.5967352390289307,-0.0,0.0
386,12.853167293280421,0.0,-0.0,9.81724739074707,-1.0871359990005658e-07,3.93478707394479e-08,-7.192347412088296e-12,-23.83699607849121,57.742576599121094,0.001546401996165514,-0.5967352390289307,-0.0,0.0
387,12.863167293056904,0.0,-0.0,9.8161039352417,-1.499218598155494e-07,4.319924684637044e-08,4.05083744325907e-11,-23.83699607849121,57.742576599121094,0.0015497207641601562,-0.5967352390289307,-0.0,0.0
388,12.873167292833386,0.0,-0.0,9.814579010009766,-1.6887746312477248e-07,4.936307007596952e-08,2.7333690866271354e-11,-23.83699607849121,57.742576599121094,0.001553497277200222,-0.5967352390289307,-0.0,0.0
389,12.883167292609869,0.0,-0.0,9.813432693481445,-4.0330675687982875e-07,5.602741381949272e-08,-2.5797669556126834e-11,-23.83699607849121,57.742576599121094,0.0015576170990243554,-0.5967352390289307,-0.0,0.0
390,12.893167292386352,0.0,-0.0,9.812671661376953,-4.2569280367388274e-07,5.55987185180129e-08,3.0306868126217523e-11,-23.83699607849121,57.742576599121094,0.0015620040940120816,-0.5967352390289307,-0.0,0.0
391,12.903167292162834,0.0,-0.0,9.811906814575195,-4.2279597778360767e-07,5.7021274812996126e-08,-1.9984486288038283e-11,-23.83699607849121,57.742576599121094,0.0015665816608816385,-0.5967352390289307,-0.0,0.0
392,12.913167291939317,0.0,-0.0,9.81114387512207,1.0869147217817954e-06,5.87434811905041e-08,7.68692887120892e-11,-23.83699607849121,57.742576599121094,0.0015712737804278731,-0.5967352390289307,-0.0,0.0
393,12.9231672917158,0.0,-0.0,9.810382843017578,-4.5525973746407544e-07,5.802958114031753e-08,-3.636732581746571e-11,-23.83699607849121,57.742576599121094,0.0015760039677843451,-0.5967352390289307,-0.0,0.0
394,12.933167291492282,0.0,-0.0,9.810382843017578,-4.8325080115319e-07,5.855428497625326e-08,6.768663407541453e-11,-23.83699607849121,57.742576599121094,0.0015807723393663764,-0.5967352390289307,-0.0,0.0
395,12.943167291268765,0.0,-0.0,9.80961799621582,-4.88872558435105e-07,5.1039478421444073e-08,2.2556637113702038e-11,-23.83699607849121,57.742576599121094,0.0015855026431381702,-0.5967352390289307,-0.0,0.0
396,12.953167291045247,0.0,-0.0,9.80961799621582,-5.145689101482276e-07,5.2032131492296685e-08,6.50843268168444e-11,-23.83699607849121,57.742576599121094,0.001590194646269083,-0.5967352390289307,-0.0,0.0
397,12.96316729082173,0.0,-0.0,9.808856964111328,1.036957200994948e-06,4.4736040649695497e-08,2.222534656315389e-11,-23.83699607849121,57.742576599121094,0.0015947723295539618,-0.5967352390289307,-0.0,0.0
398,12.973167290598212,0.0,-0.0,9.808856964111328,-5.160558202987886e-07,4.5456129527110534e-08,-4.182956758747025e-11,-23.83699607849121,57.742576599121094,0.0015992354601621628,-0.5967352390289307,-0.0,0.0
399,12.983167290374695,0.0,-0.0,9.808854103088379,-5.430233045444766e-07,4.0803477929785004e-08,3.640379664382465e-11,-23.83699607849121,57.742576599121094,0.0016035842709243298,-0.5967352390289307,-0.0,0.0
400,12.993167290151177,0.0,-0.0,9.808857917785645,9.982560413845931e-07,3.256998226675023e-08,6.18409767838557e-11,-23.83699607849121,57.742576599121094,0.001607818529009819,-0.5967352390289307,-0.0,0.0
401,13.00316728992766,0.0,-0.0,9.80847454071045,-5.162104912415089e-07,2.3827888995242574e-08,2.965014900269125e-10,-23.83699607849121,57.742576599121094,0.001611900283023715,-0.5967352390289307,-0.0,0.0
402,13.013167289704143,0.0,-0.0,9.808091163635254,-5.369640803110087e-07,1.9628400238502763e-08,-2.4632268447177808e-11,-23.83699607849121,57.742576599121094,0.0016157912323251367,-0.5967352390289307,-0.0,0.0
403,13.023167289480625,0.0,-0.0,9.808477401733398,3.528816421294323e-07,-3.379855115781538e-07,-1.1038938513285856e-10,-23.83699607849121,57.742576599121094,0.001619529677554965,-0.5967352390289307,-0.0,0.0
404,13.033167289257108,0.0,-0.0,9.8084716796875,1.0217297585768392e-06,1.1323096238413655e-08,3.1011498924371494e-11,-23.83699607849121,57.742576599121094,0.0016231155022978783,-0.5967352390289307,-0.0,0.0
405,13.04316728903359,0.0,-0.0,9.808477401733398,3.8220247233766713e-07,3.5426842259767e-07,1.240261227053452e-10,-23.83699607849121,57.742576599121094,0.0016265487065538764,-0.5967352390289307,-0.0,0.0
406,13.053167288810073,0.0,-0.0,9.8084716796875,-5.152484163772897e-07,5.015540427422138e-09,4.228284389284909e-12,-23.83699607849121,57.742576599121094,0.0016298294067382812,-0.5967352390289307,-0.0,0.0
407,13.063167288586556,0.0,-0.0,9.80809497833252,-5.336339086170483e-07,3.1066341166230416e-10,-4.909895753857363e-11,-23.83699607849121,57.742576599121094,0.0016329193022102118,-0.5967352390289307,-0.0,0.0
408,13.073167288363038,0.0,-0.0,9.80847454071045,9.989506679630722e-07,-5.558702831365281e-09,-1.1763451324142693e-10,-23.83699607849121,57.742576599121094,0.0016358565771952271,-0.5967352390289307,-0.0,0.0
409,13.08316728813952,0.0,-0.0,9.808473587036133,-5.325541678757872e-07,-1.1926561960251547e-08,1.7306785171644634e-10,-23.83699607849121,57.742576599121094,0.0016386413481086493,-0.5967352390289307,-0.0,0.0
410,13.093167287916003,0.0,-0.0,9.782154083251953,-0.0,-0.0,-0.0,-23.83699607849121,57.742576599121094,0.0016386413481086493,-0.5967352390289307,-0.0,0.0
411,13.103167287692486,0.0,-0.0,9.8100004196167,-8.753852966947306e-07,3.3921119779734e-07,9.601250350321777e-11,-23.83699607849121,57.742576599121094,0.0016386413481086493,-0.5967352390289307,-0.0,0.0
412,13.113167287468968,0.0,-0.0,9.824878692626953,1.500425383937909e-08,-3.156813477289688e-08,-1.406723071362137e-10,-23.83699607849121,57.742576599121094,0.0016401290195062757,-0.5967352390289307,-0.0,0.0
413,13.123167287245451,0.0,-0.0,9.805421829223633,3.5532302433693985e-08,-5.330279506665647e-08,2.62630750480497e-11,-23.83699607849121,57.742576599121094,0.0016411590622738004,-0.5967352390289307,-0.0,0.0
414,13.133167287021934,0.0,-0.0,9.811145782470703,-8.447990467175259e-07,2.8262184059713036e-07,1.0583538212483035e-10,-23.83699607849121,57.742576599121094,0.0016423034248873591,-0.5967352390289307,-0.0,0.0
415,13.143167286798416,0.0,-0.0,9.81114387512207,-8.449863457826723e-07,2.680428110579669e-07,-4.005788062366733e-11,-23.83699607849121,57.742576599121094,0.0016435622237622738,-0.5967352390289307,-0.0,0.0
416,13.153167286574899,0.0,-0.0,9.81076431274414,5.7111460449732476e-08,-1.0608238909526335e-07,-1.1219884743507436e-10,-23.83699607849121,57.742576599121094,0.001644897391088307,-0.5967352390289307,-0.0,0.0
417,13.163167286351381,0.0,-0.0,9.810380935668945,9.926394568537944e-07,-4.774796593665087e-07,-6.420516895921935e-11,-23.83699607849121,57.742576599121094,0.0016462707426398993,-0.5967352390289307,-0.0,0.0
418,13.173167286127864,0.0,-0.0,9.810380935668945,-7.317126460293366e-07,2.0886659513053019e-07,2.4484703153859755e-10,-23.83699607849121,57.742576599121094,0.001647682162001729,-0.5967352390289307,-0.0,0.0
419,13.183167285904346,0.0,-0.0,9.810001373291016,1.477835098739888e-07,-1.463239129861904e-07,-1.635934721022636e-10,-23.83699607849121,57.742576599121094,0.0016490935813635588,-0.5967352390289307,-0.0,0.0
420,13.193167285680829,0.0,-0.0,9.8100004196167,1.6911742477532243e-06,-1.574184125274769e-07,-8.407058382786659e-11,-23.83699607849121,57.742576599121094,0.0016505050007253885,-0.5967352390289307,-0.0,0.0
421,13.203167285457312,0.0,-0.0,9.809999465942383,1.822849782229241e-07,-1.7231498361525155e-07,1.808933558500314e-10,-23.83699607849121,57.742576599121094,0.0016519164200872183,-0.5967352390289307,-0.0,0.0
422,13.213167285233794,0.0,-0.0,9.809619903564453,-6.999081847425259e-07,1.6407388159223046e-07,4.518933838237871e-11,-23.83699607849121,57.742576599121094,0.0016532897716388106,-0.5967352390289307,-0.0,0.0
423,13.223167285010277,0.0,-0.0,9.8100004196167,1.955304469447583e-07,-1.9588752309118718e-07,-1.5507821415905454e-10,-23.83699607849121,57.742576599121094,0.0016546630067750812,-0.5967352390289307,-0.0,0.0
424,13.23316728478676,0.0,-0.0,9.809619903564453,2.2214173611700971e-07,-2.002101524567479e-07,2.5056748342855428e-11,-23.83699607849121,57.742576599121094,0.0016559981741011143,-0.5967352390289307,-0.0,0.0
425,13.243167284563242,0.0,-0.0,9.809617042541504,2.0320979388088745e-07,-2.053468932672331e-07,1.048918417401179e-11,-23.83699607849121,57.742576599121094,0.0016572951572015882,-0.5967352390289307,-0.0,0.0
426,13.253167284339725,0.0,-0.0,9.80923843383789,8.76463673193939e-07,1.3643794716244884e-07,-7.453029512993758e-12,-23.83699607849121,57.742576599121094,0.0016585158882662654,-0.5967352390289307,-0.0,0.0
427,13.263167284116207,0.0,-0.0,9.809619903564453,-6.597574611078016e-07,1.3057336900601513e-07,1.3664194775664384e-10,-23.83699607849121,57.742576599121094,0.0016596984351053834,-0.5967352390289307,-0.0,0.0
428,13.27316728389269,0.0,-0.0,9.80961799621582,-6.777522685297299e-07,1.3248589425529644e-07,-6.298279953131924e-11,-23.83699607849121,57.742576599121094,0.001660842914134264,-0.5967352390289307,-0.0,0.0
429,13.283167283669172,0.0,-0.0,9.809619903564453,1.882667532981941e-07,-2.260155440581002e-07,-1.1581659242754228e-10,-23.83699607849121,57.742576599121094,0.0016619490925222635,-0.5967352390289307,-0.0,0.0
430,13.293167283445655,0.0,-0.0,9.80961799621582,-6.883429364279436e-07,1.2306610130963236e-07,1.333408106152234e-10,-23.83699607849121,57.742576599121094,0.0016630172031000257,-0.5967352390289307,-0.0,0.0
431,13.303167283222137,0.0,-0.0,9.79931926727295,-6.90867409502971e-07,1.1744220529408267e-07,-3.058818476286973e-11,-23.83699607849121,57.742576599121094,0.0016630172031000257,-0.5967352390289307,-0.0,0.0
432,13.31316728299862,0.0,-0.0,9.82945442199707,1.9090772696017666e-07,-2.3497146628415067e-07,-1.0691884877456204e-10,-23.83699607849121,57.742576599121094,0.0016649627359583974,-0.5967352390289307,-0.0,0.0
433,13.323167282775103,0.0,-0.0,9.790546417236328,1.7362775679430342e-06,-2.4606924853287637e-07,-6.707256972049436e-11,-23.83699607849121,57.742576599121094,0.0016649627359583974,-0.5967352390289307,-0.0,0.0
434,13.333167282551585,0.0,-0.0,9.82792854309082,-6.90573756401136e-07,1.0283304163749563e-07,2.858830949747926e-10,-23.83699607849121,57.742576599121094,0.001666755648329854,-0.5967352390289307,-0.0,0.0
435,13.343167282328068,0.0,-0.0,9.792072296142578,2.0347334839243558e-07,-2.4959780375866103e-07,-1.9125331873759421e-10,-23.83699607849121,57.742576599121094,0.001666755648329854,-0.5967352390289307,-0.0,0.0
436,13.35316728210455,0.0,-0.0,9.825641632080078,8.506551694154041e-07,9.740347195474897e-08,8.720607569401295e-12,-23.83699607849121,57.742576599121094,0.0016683196881785989,-0.5967352390289307,-0.0,0.0
437,13.363167281881033,0.0,-0.0,9.79435920715332,2.1135254257842462e-07,4.5070845544614713e-07,1.1957827783515285e-10,-23.83699607849121,57.742576599121094,0.0016683196881785989,-0.5967352390289307,-0.0,0.0
438,13.373167281657516,0.0,-0.0,9.824115753173828,-6.683677611363237e-07,9.246750209968013e-08,1.0718648191243574e-12,-23.83699607849121,57.742576599121094,0.0016697311075404286,-0.5967352390289307,-0.0,0.0
439,13.383167281433998,0.0,-0.0,9.79588508605957,8.406488518630795e-07,9.226861408251352e-08,-1.5135216691053444e-10,-23.83699607849121,57.742576599121094,0.0016697311075404286,-0.5967352390289307,-0.0,0.0
440,13.39316728121048,0.0,-0.0,9.822587966918945,1.897992802923909e-07,-2.6509832196097705e-07,6.466126245552317e-11,-23.83699607849121,57.742576599121094,0.0016709899064153433,-0.5967352390289307,-0.0,0.0
441,13.403167280986963,0.0,-0.0,9.797412872314453,1.8402562318442506e-07,-2.768923934581835e-07,-1.6597612173541165e-11,-23.83699607849121,57.742576599121094,0.0016709899064153433,-0.5967352390289307,-0.0,0.0
442,13.413167280763446,0.0,-0.0,9.821062088012695,-7.095890168784535e-07,6.800939189588462e-08,9.25417104058468e-11,-23.83699607849121,57.742576599121094,0.0016720962012186646,-0.5967352390289307,-0.0,0.0
443,13.423167280539928,0.0,-0.0,9.798938751220703,-7.31869704395649e-07,6.525517903810396e-08,-4.092667177379994e-11,-23.83699607849121,57.742576599121094,0.0016720962012186646,-0.5967352390289307,-0.0,0.0
444,13.433167280316411,0.0,-0.0,9.8100004196167,1.477243216641e-07,-2.843279105491092e-07,-1.0970267749765839e-10,-23.83699607849121,57.742576599121094,0.0016720962012186646,-0.5967352390289307,-0.0,0.0
445,13.443167280092894,0.0,-0.0,9.82449722290039,8.187003004422877e-07,6.544738084812707e-08,3.049840935354098e-11,-23.83699607849121,57.742576599121094,0.0016735458048060536,-0.5967352390289307,-0.0,0.0
446,13.453167279869376,0.0,-0.0,9.795503616333008,-7.38070582428918e-07,6.66955983774642e-08,1.4908699275117954e-10,-23.83699607849121,57.742576599121094,0.0016735458048060536,-0.5967352390289307,-0.0,0.0
447,13.463167279645859,0.0,-0.0,9.8100004196167,-7.807388442415686e-07,6.772337002303175e-08,-6.041130096168246e-11,-23.83699607849121,57.742576599121094,0.0016735458048060536,-0.5967352390289307,-0.0,0.0
448,13.473167279422341,0.0,-0.0,9.82182502746582,7.785337743371201e-07,6.885745307272373e-08,-1.2486819911394775e-10,-23.83699607849121,57.742576599121094,0.0016747283516451716,-0.5967352390289307,-0.0,0.0
449,13.483167279198824,0.0,-0.0,9.798175811767578,-7.739757279523474e-07,6.960277687539929e-08,1.7524702522475621e-10,-23.83699607849121,57.742576599121094,0.0016747283516451716,-0.5967352390289307,-0.0,0.0
450,13.493167278975307,0.0,-0.0,9.8100004196167,-8.025550641832524e-07,6.447632472372788e-08,-5.349938547727362e-11,-23.83699607849121,57.742576599121094,0.0016747283516451716,-0.5967352390289307,-0.0,0.0
451,13.50316727875179,0.0,-0.0,9.8100004196167,7.211322099465178e-07,5.721448914641769e-08,-1.2103537616603433e-10,-23.83699607849121,57.742576599121094,0.0016747283516451716,-0.5967352390289307,-0.0,0.0
452,13.513167278528272,0.0,-0.0,9.8100004196167,-0.0,-0.0,-0.0,-23.83699607849121,57.742576599121094,0.0016747283516451716,-0.5967352390289307,-0.0,0.0
453,13.523167278304754,0.0,-0.0,9.82029914855957,2.7509026168104356e-08,-6.656446061015231e-09,-2.583372751829849e-12,-23.83699607849121,57.742576599121094,0.0016757582779973745,-0.5967352390289307,-0.0,0.0
454,13.533167278081237,0.0,-0.0,9.799701690673828,-6.224872777238488e-07,-3.5697249245458806e-07,7.305524241107975e-12,-23.83699607849121,57.742576599121094,0.0016757582779973745,-0.5967352390289307,-0.0,0.0
455,13.54316727785772,0.0,-0.0,9.8100004196167,5.338039343882883e-08,-1.3344547689086994e-08,-4.0283325286605276e-11,-23.83699607849121,57.742576599121094,0.0016757582779973745,-0.5967352390289307,-0.0,0.0
456,13.553167277634202,0.0,-0.0,9.8100004196167,5.90192250626842e-08,-1.615027755974552e-08,2.4570196571760405e-11,-23.83699607849121,57.742576599121094,0.0016757582779973745,-0.5967352390289307,-0.0,0.0
457,13.563167277410685,0.0,-0.0,9.8100004196167,7.344684860299822e-08,-1.335602384244794e-08,6.532913099377424e-12,-23.83699607849121,57.742576599121094,0.0016757582779973745,-0.5967352390289307,-0.0,0.0
458,13.573167277187167,0.0,-0.0,9.8100004196167,8.858899747110627e-08,-1.2448265529485525e-08,1.1655095291662754e-12,-23.83699607849121,57.742576599121094,0.0016757582779973745,-0.5967352390289307,-0.0,0.0
459,13.58316727696365,0.0,-0.0,9.8100004196167,-5.530407634068979e-07,-3.66079632385663e-07,6.237917300755402e-12,-23.83699607849121,57.742576599121094,0.0016757582779973745,-0.5967352390289307,-0.0,0.0
460,13.593167276740132,0.0,-0.0,9.8100004196167,-5.363116315493244e-07,3.402826678211568e-07,4.39493788584322e-11,-23.83699607849121,57.742576599121094,0.0016757582779973745,-0.5967352390289307,-0.0,0.0
461,13.603167276516615,0.0,-0.0,9.8100004196167,1.0300451549483114e-06,3.3957667255890556e-07,-1.1064472948962845e-10,-23.83699607849121,57.742576599121094,0.0016757582779973745,-0.5967352390289307,-0.0,0.0
462,13.613167276293098,0.0,-0.0,9.820301055908203,1.8980914262556325e-07,-1.1229505325616174e-08,9.194025402115003e-11,-23.83699607849121,57.742576599121094,0.0016767883207648993,-0.5967352390289307,-0.0,0.0
463,13.62316727606958,0.0,-0.0,9.799699783325195,2.0208750584060908e-07,-1.0820880191886317e-08,-2.2684715217380358e-11,-23.83699607849121,57.742576599121094,0.0016767883207648993,-0.5967352390289307,-0.0,0.0
464,13.633167275846063,0.0,-0.0,9.8100004196167,2.135751060450275e-07,-9.906977460616417e-09,-6.98153687639369e-12,-23.83699607849121,57.742576599121094,0.0016767883207648993,-0.5967352390289307,-0.0,0.0
465,13.643167275622545,0.0,-0.0,9.8100004196167,-4.32323986387928e-07,-3.6164499306323705e-07,4.933508896548533e-12,-23.83699607849121,57.742576599121094,0.0016767883207648993,-0.5967352390289307,-0.0,0.0
466,13.653167275399028,0.0,-0.0,9.8100004196167,-1.3165325754016521e-06,-1.3500641493635612e-08,6.559144893891755e-11,-23.83699607849121,57.742576599121094,0.0016767883207648993,-0.5967352390289307,-0.0,0.0
467,13.66316727517551,0.0,-0.0,9.8100004196167,2.4908629825404205e-07,-1.4243083157339242e-08,-1.5474557746308903e-10,-23.83699607849121,57.742576599121094,0.0016767883207648993,-0.5967352390289307,-0.0,0.0
468,13.673167274951993,0.0,-0.0,9.8100004196167,1.1732414577636519e-06,-3.5967519806945347e-07,-3.819994320863884e-11,-23.83699607849121,57.742576599121094,0.0016767883207648993,-0.5967352390289307,-0.0,0.0
469,13.683167274728476,0.0,-0.0,9.8100004196167,-1.229299527949479e-06,-1.2273277505414626e-08,2.599153947624444e-10,-23.83699607849121,57.742576599121094,0.0016767883207648993,-0.5967352390289307,-0.0,0.0
470,13.693167274504958,0.0,-0.0,9.8100004196167,-3.532479126988619e-07,3.4506822998991993e-07,-1.184748410487657e-10,-23.83699607849121,57.742576599121094,0.0016767883207648993,-0.5967352390289307,-0.0,0.0
471,13.70316727428144,0.0,-0.0,9.82068157196045,3.4442820151525666e-07,-2.178364155724921e-09,-6.906517718840988e-11,-23.83699607849121,57.742576599121094,0.0016778564313426614,-0.5967352390289307,-0.0,0.0
472,13.713167274057923,0.0,-0.0,9.79931926727295,-2.8608218372028205e-07,-3.4926299008475326e-07,4.262737385296589e-11,-23.83699607849121,57.742576599121094,0.0016778564313426614,-0.5967352390289307,-0.0,0.0
473,13.723167273834406,0.0,-0.0,9.8100004196167,1.2790659411621164e-06,3.4413352523188223e-07,-5.220138557526788e-11,-23.83699607849121,57.742576599121094,0.0016778564313426614,-0.5967352390289307,-0.0,0.0
474,13.733167273610889,0.0,-0.0,9.8100004196167,4.0225575048680184e-07,-4.65019267537059e-09,9.225741698370982e-11,-23.83699607849121,57.742576599121094,0.0016778564313426614,-0.5967352390289307,-0.0,0.0
475,13.743167273387371,0.0,-0.0,9.8100004196167,-1.1319888244543108e-06,-3.051639607676293e-09,7.953756403500378e-11,-23.83699607849121,57.742576599121094,0.0016778564313426614,-0.5967352390289307,-0.0,0.0
476,13.753167273163854,0.0,-0.0,9.8100004196167,4.101729018657352e-07,-9.426573299720076e-09,-1.8530368905977923e-10,-23.83699607849121,57.742576599121094,0.0016778564313426614,-0.5967352390289307,-0.0,0.0
477,13.763167272940336,0.0,-0.0,9.8100004196167,-2.332525781412187e-07,-3.625725355504983e-07,5.7834931288525127e-11,-23.83699607849121,57.742576599121094,0.0016778564313426614,-0.5967352390289307,-0.0,0.0
478,13.773167272716819,0.0,-0.0,9.8100004196167,1.3152260862625553e-06,3.3463081194895494e-07,-4.574770423593222e-11,-23.83699607849121,57.742576599121094,0.0016778564313426614,-0.5967352390289307,-0.0,0.0
479,13.783167272493301,0.0,-0.0,9.8100004196167,-1.0875445468627731e-06,-1.159814377871271e-08,1.9603522971589626e-10,-23.83699607849121,57.742576599121094,0.0016778564313426614,-0.5967352390289307,-0.0,0.0
480,13.793167272269784,0.0,-0.0,9.8100004196167,4.385572083265288e-07,-1.0902911462551401e-08,-2.0007392964593862e-10,-23.83699607849121,57.742576599121094,0.0016778564313426614,-0.5967352390289307,-0.0,0.0
481,13.803167272046267,0.0,-0.0,9.8100004196167,-1.066091954271542e-06,-1.0742617462256021e-08,1.4775491941065866e-10,-23.83699607849121,57.742576599121094,0.0016778564313426614,-0.5967352390289307,-0.0,0.0
482,13.81316727182275,0.0,-0.0,9.8100004196167,-1.633766544273385e-07,-3.5002804565920087e-07,-1.552750705791084e-10,-23.83699607849121,57.742576599121094,0.0016778564313426614,-0.5967352390289307,-0.0,0.0
483,13.823167271599232,0.0,-0.0,9.8100004196167,5.079776315142226e-07,-1.6674239766700794e-09,1.7865736667843635e-11,-23.83699607849121,57.742576599121094,0.0016778564313426614,-0.5967352390289307,-0.0,0.0
484,13.833167271375714,0.0,-0.0,9.8100004196167,-9.981905435552108e-08,3.576883784717211e-07,1.21322868418261e-10,-23.83699607849121,57.742576599121094,0.0016778564313426614,-0.5967352390289307,-0.0,0.0
485,13.843167271152197,0.0,-0.0,9.8100004196167,-8.680270724426009e-08,-3.383896967079636e-07,-9.380068943798392e-11,-23.83699607849121,57.742576599121094,0.0016778564313426614,-0.5967352390289307,-0.0,0.0
486,13.85316727092868,0.0,-0.0,9.820301055908203,5.620411229756428e-07,1.2812630956204885e-08,-1.3494774742106586e-11,-23.83699607849121,57.742576599121094,0.0016788863576948643,-0.5967352390289307,-0.0,0.0
487,13.863167270705162,0.0,-0.0,9.799699783325195,5.744990403400152e-07,1.3288627975782674e-08,3.020159122790744e-11,-23.83699607849121,57.742576599121094,0.0016788863576948643,-0.5967352390289307,-0.0,0.0
488,13.873167270481645,0.0,-0.0,9.8100004196167,-9.444255510970834e-07,1.865471155326759e-08,1.1193889565275228e-10,-23.83699607849121,57.742576599121094,0.0016788863576948643,-0.5967352390289307,-0.0,0.0
489,13.883167270258127,0.0,-0.0,9.8100004196167,-9.35475611640868e-07,3.03949541091697e-08,-6.966592580592845e-11,-23.83699607849121,57.742576599121094,0.0016788863576948643,-0.5967352390289307,-0.0,0.0
490,13.89316727003461,0.0,-0.0,9.8100004196167,6.0361179521351e-07,3.063461306851423e-08,-1.2226139545212789e-10,-23.83699607849121,57.742576599121094,0.0016788863576948643,-0.5967352390289307,-0.0,0.0
491,13.903167269811092,0.0,-0.0,9.8100004196167,1.5108901152416365e-06,3.8367124943761155e-07,4.642583539826717e-11,-23.83699607849121,57.742576599121094,0.0016788863576948643,-0.5967352390289307,-0.0,0.0
492,13.913167269587575,0.0,-0.0,9.8100004196167,-8.688467119100096e-07,3.783008040159075e-08,1.864706028475993e-10,-23.83699607849121,57.742576599121094,0.0016788863576948643,-0.5967352390289307,-0.0,0.0
493,13.923167269364058,0.0,-0.0,9.8100004196167,-2.7266602309339305e-09,-3.141234969916695e-07,-1.9605453371873693e-10,-23.83699607849121,57.742576599121094,0.0016788863576948643,-0.5967352390289307,-0.0,0.0
494,13.93316726914054,0.0,-0.0,9.8100004196167,-0.0,-0.0,-0.0,-23.83699607849121,57.742576599121094,0.0016788863576948643,-0.5967352390289307,-0.0,0.0
495,13.943167268917023,0.0,-0.0,9.8100004196167,4.592210167686517e-09,6.582856482140187e-09,4.0262449407454937e-13,-23.83699607849121,57.742576599121094,0.0016788863576948643,-0.5967352390289307,-0.0,0.0
496,13.953167268693505,0.0,-0.0,9.8100004196167,9.204593531819683e-09,1.3166260970365329e-08,6.436209529746273e-13,-23.83699607849121,57.742576599121094,0.0016788863576948643,-0.5967352390289307,-0.0,0.0
497,13.963167268469988,0.0,-0.0,9.8100004196167,1.3819803967862754e-08,1.974966856721494e-08,7.025427331899814e-13,-23.83699607849121,57.742576599121094,0.0016788863576948643,-0.5967352390289307,-0.0,0.0
498,13.97316726824647,0.0,-0.0,9.8100004196167,1.8435489579360365e-08,2.6333083269491908e-08,7.13537031109962e-13,-23.83699607849121,57.742576599121094,0.0016788863576948643,-0.5967352390289307,-0.0,0.0
499,13.983167268022953,0.0,-0.0,9.8100004196167,2.3051155650932742e-08,3.291649619541204e-08,7.153621228370155e-13,-23.83699607849121,57.742576599121094,0.0016788863576948643,-0.5967352390289307,-0.0,0.0
500,13.993167267799436,0.0,-0.0,9.8100004196167,2.8112793870604946e-08,2.6312120482430146e-08,-7.440157431121142e-13,-23.83699607849121,57.742576599121094,0.0016788863576948643,-0.5967352390289307,-0.0,0.0
501,14.003167267575918,0.0,-0.0,9.8100004196167,3.317639141187101e-08,1.9706654086348863e-08,-7.725536790154086e-13,-23.83699607849121,57.742576599121094,0.0016788863576948643,-0.5967352390289307,-0.0,0.0
502,14.0131672673524,0.0,-0.0,9.8100004196167,4.599806402438844e-08,1.8734850115720292e-08,-6.839569600784745e-13,-23.83699607849121,57.742576599121094,0.0016788863576948643,-0.5967352390289307,-0.0,0.0
503,14.023167267128883,0.0,-0.0,9.8100004196167,6.005755182059147e-08,2.0586496063401682e-08,-7.210979860103328e-14,-23.83699607849121,57.742576599121094,0.0016788863576948643,-0.5967352390289307,-0.0,0.0
504,14.033167266905366,0.0,-0.0,9.8100004196167,7.412718616706115e-08,2.243839070104059e-08,9.389461186641232e-14,-23.83699607849121,57.742576599121094,0.0016788863576948643,-0.5967352390289307,-0.0,0.0
505,14.043167266681849,0.0,-0.0,9.8100004196167,8.819834818041272e-08,2.4290292444106854e-08,1.2824211636196237e-13,-23.83699607849121,57.742576599121094,0.0016788863576948643,-0.5967352390289307,-0.0,0.0
506,14.053167266458331,0.0,-0.0,9.8100004196167,1.0226973046201238e-07,2.6142195963529957e-08,1.341211484321564e-13,-23.83699607849121,57.742576599121094,0.0016788863576948643,-0.5967352390289307,-0.0,0.0
507,14.063167266234814,0.0,-0.0,9.8100004196167,-1.4097406619839603e-06,2.7252156087342883e-08,1.0335540062689219e-10,-23.83699607849121,57.742576599121094,0.0016788863576948643,-0.5967352390289307,-0.0,0.0
508,14.073167266011296,0.0,-0.0,9.8100004196167,-5.042071506977663e-07,3.7414309872474405e-07,-9.514541238209162e-11,-23.83699607849121,57.742576599121094,0.0016788863576948643,-0.5967352390289307,-0.0,0.0
509,14.083167265787779,0.0,-0.0,9.8100004196167,-4.870100838161306e-07,-3.214657056105352e-07,-5.106259859388729e-11,-23.83699607849121,57.742576599121094,0.0016788863576948643,-0.5967352390289307,-0.0,0.0
510,14.093167265564261,0.0,-0.0,9.8100004196167,-4.574159220283036e-07,-3.1735092420603905e-07,4.4521539233066676e-12,-23.83699607849121,57.742576599121094,0.0016788863576948643,-0.5967352390289307,-0.0,0.0
511,14.103167265340744,0.0,-0.0,9.8100004196167,-4.2812442302420095e-07,-3.131802372990933e-07,1.5108528577528757e-12,-23.83699607849121,57.742576599121094,0.0016788863576948643,-0.5967352390289307,-0.0,0.0
512,14.113167265117227,0.0,-0.0,9.8100004196167,2.631446420764405e-07,4.41059881950423e-08,-5.998451735322874e-12,-23.83699607849121,57.742576599121094,0.0016788863576948643,-0.5967352390289307,-0.0,0.0
513,14.12316726489371,0.0,-0.0,9.8100004196167,3.062742450765654e-07,5.4404434735033647e-08,3.278688778807215e-11,-23.83699607849121,57.742576599121094,0.0016788863576948643,-0.5967352390289307,-0.0,0.0
514,14.133167264670192,0.0,-0.0,9.8100004196167,1.2215991773700807e-06,-2.905464668856439e-07,-8.853320854207425e-11,-23.83699607849121,57.742576599121094,0.0016788863576948643,-0.5967352390289307,-0.0,0.0
515,14.143167264446674,0.0,-0.0,9.8100004196167,3.661806999843975e-07,6.743705682765722e-08,1.4095374867295618e-10,-23.83699607849121,57.742576599121094,0.0016788863576948643,-0.5967352390289307,-0.0,0.0
516,14.153167264223157,0.0,-0.0,9.8100004196167,1.2647849416680401e-06,4.2144480971728626e-07,-5.000884428785213e-11,-23.83699607849121,57.742576599121094,0.0016788863576948643,-0.5967352390289307,-0.0,0.0
517,14.16316726399964,0.0,-0.0,9.8100004196167,4.096553141152981e-07,7.49330268945414e-08,5.586552401237732e-11,-23.83699607849121,57.742576599121094,0.0016788863576948643,-0.5967352390289307,-0.0,0.0
518,14.173167263776122,0.0,-0.0,9.8100004196167,4.2245110876137915e-07,7.4869177524306e-08,-3.3120058778868255e-11,-23.83699607849121,57.742576599121094,0.0016788863576948643,-0.5967352390289307,-0.0,0.0
519,14.183167263552605,0.0,-0.0,9.8100004196167,4.381024325539329e-07,7.483139796704563e-08,-9.32622035154651e-12,-23.83699607849121,57.742576599121094,0.0016788863576948643,-0.5967352390289307,-0.0,0.0
520,14.193167263329087,0.0,-0.0,9.8100004196167,4.5416575744638976e-07,7.479454211534176e-08,-1.8885604885499063e-12,-23.83699607849121,57.742576599121094,0.0016788863576948643,-0.5967352390289307,-0.0,0.0
521,14.20316726310557,0.0,-0.0,9.8100004196167,-2.0004755185709655e-07,-2.731566439706512e-07,7.268090643219871e-12,-23.83699607849121,57.742576599121094,0.0016788863576948643,-0.5967352390289307,-0.0,0.0
522,14.213167262882052,0.0,-0.0,9.8100004196167,4.5265508674674493e-07,7.900177223518767e-08,-3.813325349932839e-11,-23.83699607849121,57.742576599121094,0.0016788863576948643,-0.5967352390289307,-0.0,0.0
523,14.223167262658535,0.0,-0.0,9.8100004196167,-1.9917276006253815e-07,-2.68921610313555e-07,3.052034319717123e-11,-23.83699607849121,57.742576599121094,0.0016788863576948643,-0.5967352390289307,-0.0,0.0
524,14.233167262435018,0.0,-0.0,9.8100004196167,-1.0761978046502918e-06,8.862744493853825e-08,7.256757000861924e-11,-23.83699607849121,57.742576599121094,0.0016788863576948643,-0.5967352390289307,-0.0,0.0
525,14.2431672622115,0.0,-0.0,9.8100004196167,-1.0737463753685006e-06,9.335153805523078e-08,-4.676720122276379e-11,-23.83699607849121,57.742576599121094,0.0016788863576948643,-0.5967352390289307,-0.0,0.0
526,14.253167261987983,0.0,-0.0,9.8100004196167,-1.0561536782915937e-06,9.2839798071509e-08,-1.3232241691252256e-11,-23.83699607849121,57.742576599121094,0.0016788863576948643,-0.5967352390289307,-0.0,0.0
527,14.263167261764465,0.0,-0.0,9.8100004196167,-1.502108943896019e-07,4.444528372005152e-07,-2.4591556221920108e-11,-23.83699607849121,57.742576599121094,0.0016788863576948643,-0.5967352390289307,-0.0,0.0
528,14.273167261540948,0.0,-0.0,9.8100004196167,-9.901739304041257e-07,9.178417315069964e-08,6.275500258334787e-11,-23.83699607849121,57.742576599121094,0.0016788863576948643,-0.5967352390289307,-0.0,0.0
529,14.28316726131743,0.0,-0.0,9.8100004196167,-9.504718718744698e-07,9.212943297143283e-08,-3.248541019518214e-11,-23.83699607849121,57.742576599121094,0.0016788863576948643,-0.5967352390289307,-0.0,0.0
530,14.293167261093913,0.0,-0.0,9.8100004196167,6.416894962057995e-07,9.271838052882231e-08,-1.1419678397350808e-10,-23.83699607849121,57.742576599121094,0.0016788863576948643,-0.5967352390289307,-0.0,0.0
531,14.303167260870396,0.0,-0.0,9.8100004196167,3.818767879693041e-08,-2.5580573037586873e-07,7.743388569236842e-11,-23.83699607849121,57.742576599121094,0.0016788863576948643,-0.5967352390289307,-0.0,0.0
532,14.313167260646878,0.0,-0.0,9.8100004196167,6.460498980231932e-08,-2.502466145415383e-07,-1.1507989006176444e-11,-23.83699607849121,57.742576599121094,0.0016788863576948643,-0.5967352390289307,-0.0,0.0
533,14.32316726042336,0.0,-0.0,9.8100004196167,9.257542643581473e-08,-2.4465990122735093e-07,-3.893748171113209e-12,-23.83699607849121,57.742576599121094,0.0016788863576948643,-0.5967352390289307,-0.0,0.0
534,14.333167260199843,0.0,-0.0,9.8100004196167,1.207699824590236e-07,-2.3907233526188065e-07,-4.260929716698447e-13,-23.83699607849121,57.742576599121094,0.0016788863576948643,-0.5967352390289307,-0.0,0.0
535,14.343167259976326,0.0,-0.0,9.8100004196167,1.4899691791470104e-07,-2.334847835072651e-07,3.2337365207454893e-13,-23.83699607849121,57.742576599121094,0.0016788863576948643,-0.5967352390289307,-0.0,0.0
536,14.353167259752809,0.0,-0.0,9.8100004196167,-0.0,-0.0,-0.0,-23.83699607849121,57.742576599121094,0.0016788863576948643,-0.5967352390289307,-0.0,0.0
537,14.363167259529291,0.0,-0.0,9.8100004196167,2.808864607573014e-08,5.587105889048871e-09,-1.2959659387301592e-12,-23.83699607849121,57.742576599121094,0.0016788863576948643,-0.5967352390289307,-0.0,0.0
538,14.373167259305774,0.0,-0.0,9.8100004196167,5.6300248019169885e-08,1.1174626557419742e-08,4.784421556852658e-14,-23.83699607849121,57.742576599121094,0.0016788863576948643,-0.5967352390289307,-0.0,0.0
539,14.383167259082256,0.0,-0.0,9.8100004196167,8.452964550542674e-08,1.6762207621923153e-08,4.018261960149483e-13,-23.83699607849121,57.742576599121094,0.0016788863576948643,-0.5967352390289307,-0.0,0.0
540,14.393167258858739,0.0,-0.0,9.8100004196167,1.1276159739281866e-07,2.2349759376538714e-08,4.689167348685686e-13,-23.83699607849121,57.742576599121094,0.0016788863576948643,-0.5967352390289307,-0.0,0.0
541,14.403167258635222,0.0,-0.0,9.8100004196167,1.409938619190143e-07,2.7937336000150026e-08,4.798408849079894e-13,-23.83699607849121,57.742576599121094,0.0016788863576948643,-0.5967352390289307,-0.0,0.0
542,14.413167258411704,0.0,-0.0,9.8100004196167,1.692262685537571e-07,3.352490551833398e-08,4.81075845392559e-13,-23.83699607849121,57.742576599121094,0.0016788863576948643,-0.5967352390289307,-0.0,0.0
543,14.423167258188187,0.0,-0.0,9.8100004196167,1.9745860413422633e-07,3.911248214194529e-08,4.810519387346557e-13,-23.83699607849121,57.742576599121094,0.0016788863576948643,-0.5967352390289307,-0.0,0.0
544,14.43316725796467,0.0,-0.0,9.8100004196167,2.2569095392555028e-07,4.4700055212842926e-08,4.804948756584326e-13,-23.83699607849121,57.742576599121094,0.0016788863576948643,-0.5967352390289307,-0.0,0.0
545,14.443167257741152,0.0,-0.0,9.8100004196167,2.539232752951648e-07,5.028762828374056e-08,4.797452582763762e-13,-23.83699607849121,57.742576599121094,0.0016788863576948643,-0.5967352390289307,-0.0,0.0
546,14.453167257517634,0.25997021794319153,0.0027102709282189608,9.821062088012695,1.1505221664265264e-05,-0.0001477420883020386,0.00039976276457309723,-23.836971282958984,57.742576599121094,0.0016799926524981856,-0.5965093374252319,9.56226431299001e-05,2.0106677766307257e-05
547,14.463167257294117,27.202932357788086,-0.07684952020645142,9.559783935546875,-2.3401637463393854e-06,0.007055164780467749,0.00017515788204036653,-23.834224700927734,57.7425422668457,0.0016562652308493853,-0.5964089632034302,-0.003961509559303522,1.8762440959108062e-05
548,14.4731672570706,26.002029418945312,0.11062563955783844,9.658365249633789,-2.1919399841863196e-06,0.01142659317702055,8.80495790624991e-05,-23.82887840270996,57.742488861083984,0.0016178512014448643,-0.5963585376739502,-0.010511660948395729,1.7500127796665765e-05
549,14.483167256847082,24.405176162719727,-0.06603165715932846,9.705525398254395,-2.4795215267658932e-06,0.014299683272838593,5.1521612476790324e-05,-23.82109260559082,57.74240493774414,0.001569785992614925,-0.5963289737701416,-0.018694227561354637,1.6071922800620086e-05
550,14.493167256623565,21.345638275146484,0.022107139229774475,9.756974220275879,-2.575260168669047e-06,0.015621010214090347,3.197210025973618e-05,-23.811174392700195,57.74230194091797,0.001517448341473937,-0.596310555934906,-0.027655433863401413,1.4588983503927011e-05
551,14.503167256400047,19.626901626586914,0.04419996216893196,9.778291702270508,-1.026422523864312e-06,0.0161263570189476,2.1101595848449506e-05,-23.799291610717773,57.74217987060547,0.0014632033417001367,-0.5962982773780823,-0.036889851093292236,1.3994055734656285e-05
552,14.51316725617653,11.609212875366211,-0.07926514744758606,9.864582061767578,-9.186997829147003e-08,0.014244109392166138,1.4575314708054066e-05,-23.7862491607666,57.74204635620117,0.0014153289375826716,-0.5962899327278137,-0.045051924884319305,1.3935419701738283e-05
553,14.523167255953012,19.3897647857666,0.04169841855764389,9.767824172973633,-7.199745368779986e-07,0.014964032918214798,4.847764103033114e-06,-23.771268844604492,57.74188995361328,0.0013650512555614114,-0.5962872505187988,-0.05362381041049957,1.3520493666874245e-05
554,14.533167255729495,15.411835670471191,-0.03971986845135689,9.823161125183105,-5.915410952184175e-07,0.01410611066967249,3.874164576700423e-06,-23.754751205444336,57.74171447753906,0.0013177490327507257,-0.5962849855422974,-0.06171075627207756,1.3179330380808096e-05
555,14.543167255505978,12.81199836730957,0.05321500450372696,9.840354919433594,-1.471380244311149e-07,0.012723292224109173,4.240322596160695e-06,-23.736949920654297,57.74152755737305,0.001275024376809597,-0.5962826013565063,-0.06899856775999069,1.3092256267555058e-05
556,14.55316725528246,12.773959159851074,-0.02719716913998127,9.833206176757812,9.779960237210616e-07,0.011537879705429077,2.297042556165252e-06,-23.717872619628906,57.74132537841797,0.0012363052228465676,-0.596281111240387,-0.07560335844755173,1.365108801110182e-05
557,14.563167255058943,6.993979454040527,0.03264452889561653,9.881402969360352,-4.998785385623705e-08,0.00904631894081831,9.069397606253915e-07,-23.69809913635254,57.74112319946289,0.001205711392685771,-0.5962809324264526,-0.0807943046092987,1.3621621292259078e-05
558,14.573167254835425,11.915698051452637,-0.03614680469036102,9.818918228149414,1.042683493324148e-06,0.00834567379206419,-2.4625612695672316e-06,-23.677135467529297,57.740901947021484,0.0011777877807617188,-0.5962820053100586,-0.08556860685348511,1.4221099263522774e-05
559,14.583167254611908,6.655427932739258,0.02910768985748291,9.86258602142334,6.067013487154327e-07,0.006410936824977398,-1.7955211660591885e-05,-23.655508041381836,57.74067687988281,0.0011561583960428834,-0.5962924361228943,-0.08925008028745651,1.4584361451852601e-05
560,14.59316725438839,9.736581802368164,-0.018834706395864487,9.82406234741211,2.9534933787545015e-07,0.005542784929275513,5.571528618020238e-06,-23.63290786743164,57.74044418334961,0.0011375045869499445,-0.5962892174720764,-0.0924261137843132,1.474866621720139e-05
561,14.603167254164873,6.116382122039795,0.023486288264393806,9.84949016571045,1.1007981584043591e-06,0.004059615079313517,2.264915565319825e-05,-23.609697341918945,57.740203857421875,0.0011238098377361894,-0.5962764024734497,-0.09474837779998779,1.5358045857283287e-05
562,14.613167253941356,7.95697546005249,0.002638893434777856,9.826359748840332,-3.335985638841521e-07,0.003177903825417161,-2.4673385269124992e-05,-23.585693359375,57.73995590209961,0.0011130905477330089,-0.5962905883789062,-0.09656520932912827,1.5190562407951802e-05
563,14.623167253717838,5.791494846343994,-0.8658249974250793,11.675015449523926,-0.04889996349811554,0.02193021960556507,0.0019149943254888058,-23.561113357543945,57.7396125793457,0.001290016109123826,-0.5951904654502869,-0.10913275927305222,-0.02801513671875
564,14.633167253494321,6.94500732421875,-0.061772722750902176,10.889395713806152,-0.07237979769706726,0.03102722018957138,0.006567214149981737,-23.53584098815918,57.739261627197266,0.0015764236450195312,-0.5914123058319092,-0.12691174447536469,-0.0694885179400444
565,14.643167253270803,3.332545518875122,3.8695123195648193,5.911874771118164,0.03924291953444481,-0.01472414843738079,0.003533178474754095,-23.51023292541504,57.739295959472656,0.001473388634622097,-0.5893966555595398,-0.11846962571144104,-0.0469970703125
566,14.653167253047286,6.67252779006958,-1.2570619583129883,9.927595138549805,0.02989138849079609,-0.012003668583929539,0.0038981176912784576,-23.48396110534668,57.739192962646484,0.0013834761921316385,-0.5871677398681641,-0.11159162223339081,-0.029876703396439552
567,14.663167252823769,4.566704750061035,-0.7963733077049255,9.933343887329102,0.022789642214775085,-0.01022094301879406,0.0006053273682482541,-23.45723533630371,57.739013671875,0.0013067626859992743,-0.5868235230445862,-0.10573815554380417,-0.01681518368422985
568,14.673167252600251,5.8820672035217285,-0.421121746301651,9.910618782043457,0.017401378601789474,-0.008502480573952198,-0.0004026676469948143,-23.42992401123047,57.73877716064453,0.0012411498464643955,-0.5870550274848938,-0.10086822509765625,-0.006866455543786287
569,14.683167252376734,4.2410101890563965,-0.39661502838134766,9.913110733032227,0.013269040733575821,-0.007390494458377361,0.00012681640509981662,-23.402189254760742,57.73850631713867,0.0011865615379065275,-0.5869826078414917,-0.09662668406963348,0.0007494896417483687
570,14.693167252153216,5.317842960357666,-0.144573375582695,9.89409351348877,0.010055775754153728,-0.006273412611335516,8.636635902803391e-05,-23.373926162719727,57.73820495605469,0.001141242915764451,-0.5869327187538147,-0.09303399920463562,0.006510942708700895
571,14.703167251929699,3.936537027359009,-0.07795485854148865,9.893120765686035,0.007543039042502642,-0.005609753541648388,-0.00032947841100394726,-23.34527015686035,57.73789978027344,0.0011048507876694202,-0.5871211886405945,-0.08981698006391525,0.010833090171217918
572,14.713167251706182,4.895979404449463,-0.06754884123802185,9.875070571899414,0.0055727893486619,-0.004865442402660847,-0.0004501026123762131,-23.316125869750977,57.73757553100586,0.0010757064446806908,-0.5873783230781555,-0.08703026920557022,0.014026458375155926
573,14.723167251482664,3.594785690307617,-0.00046655433834530413,9.876810073852539,0.004025544971227646,-0.00448388559743762,-0.00043046317296102643,-23.286623001098633,57.73725509643555,0.001053771935403347,-0.5876243710517883,-0.08446211367845535,0.01633329503238201
574,14.733167251259147,4.634724140167236,-0.029504887759685516,9.858686447143555,0.0028060502372682095,-0.003970110788941383,-0.000477123394375667,-23.25666046142578,57.73692321777344,0.0010373687837272882,-0.587897002696991,-0.08218766003847122,0.017941441386938095
575,14.74316725103563,3.3336048126220703,0.03735101595520973,9.86217975616455,0.0018479300197213888,-0.0037634202744811773,-0.0004660856502596289,-23.226364135742188,57.73659133911133,0.0010266494937241077,-0.5881633758544922,-0.08003615587949753,0.019000602886080742
576,14.753167250812112,4.373192310333252,0.048150163143873215,9.84485149383545,0.001090790843591094,-0.003391626290977001,-0.0004969145520590246,-23.19563102722168,57.73625946044922,0.0010200118413195014,-0.5884475111961365,-0.07808955013751984,0.01962597295641899
577,14.763167250588594,3.1341705322265625,-0.08451306074857712,9.849357604980469,0.0004987047286704183,-0.003289758460596204,-0.0004729536303784698,-23.164587020874023,57.73591613769531,0.0010177231160923839,-0.5887179970741272,-0.07620441913604736,0.019912075251340866
578,14.773167250365077,4.15174674987793,0.1259750872850418,9.834322929382324,3.6382032703841105e-05,-0.0030039744451642036,-0.00048240183969028294,-23.133129119873047,57.73558044433594,0.0010184097336605191,-0.588993489742279,-0.07448320835828781,0.01993327960371971
579,14.78316725014156,3.01275372505188,-0.005753559526056051,9.838990211486816,-0.00032122922129929066,-0.002963221864774823,-0.00046030679368413985,-23.10137176513672,57.73523712158203,0.0010223769349977374,-0.5892568826675415,-0.0727824941277504,0.019749565050005913
580,14.793167249918042,3.912421464920044,0.003457313636317849,9.824979782104492,-0.0005965302116237581,-0.0027284896932542324,-0.00047249000635929406,-23.069223403930664,57.73489761352539,0.0010283279698342085,-0.5895270109176636,-0.07122521102428436,0.019408127292990685
581,14.803167249694525,2.9326231479644775,-0.04668751358985901,9.83087158203125,-0.0008027455769479275,-0.00272402074187994,-0.0004511495353654027,-23.03678321838379,57.73454284667969,0.0010367202339693904,-0.5897850394248962,-0.06966109573841095,0.018948499113321304
582,14.813167249471007,3.7506697177886963,0.12166354805231094,9.818473815917969,-0.0009553775889798999,-0.0025193451438099146,-0.00044729464570991695,-23.003969192504883,57.73419952392578,0.001046409597620368,-0.5900410413742065,-0.0682130977511406,0.01840142160654068
583,14.82316724924749,2.792125701904297,-0.04830498620867729,9.8235502243042,-0.0010646004229784012,-0.0025336293037980795,-0.0004307223716750741,-22.97087860107422,57.73384475708008,0.0010577774373814464,-0.5902872085571289,-0.06676509231328964,0.017791735008358955
584,14.833167249023973,3.651012897491455,0.04045115038752556,9.81269359588623,-0.0011392030864953995,-0.002346112858504057,-0.00042776629561558366,-22.937421798706055,57.73349380493164,0.0010698317782953382,-0.5905317068099976,-0.06541954725980759,0.01713929884135723
585,14.843167248800455,2.7112481594085693,-0.009338323958218098,9.8184232711792,-0.0011849601287394762,-0.002370486268773675,-0.00041279001743532717,-22.903696060180664,57.73313903808594,0.0010830307146534324,-0.5907679200172424,-0.06406033784151077,0.016460636630654335
586,14.853167248576938,3.570976734161377,-0.0005781161598861217,9.808760643005371,-0.0012117348378524184,-0.0021933824755251408,-0.0004114820621907711,-22.869613647460938,57.7327766418457,0.0010964965913444757,-0.5910032987594604,-0.06280358880758286,0.015766626223921776
587,14.86316724835342,2.590402841567993,0.029203739017248154,9.815229415893555,-0.0012180265039205551,-0.0022224236745387316,-0.0003954141866415739,-22.83527374267578,57.732421875,0.0011107635218650103,-0.5912295579910278,-0.06151951104402542,0.015068990178406239
588,14.873167248129903,3.490558624267578,-0.0016151540912687778,9.805184364318848,-0.0012141152983531356,-0.0020512312185019255,-0.0003963729541283101,-22.80058479309082,57.7320556640625,0.001124916016124189,-0.5914563536643982,-0.060358379036188126,0.014373598620295525
589,14.883167247906385,2.5904085636138916,-0.011011363938450813,9.811912536621094,-0.0011963655706495047,-0.0020820454228669405,-0.00038259447319433093,-22.76563835144043,57.731689453125,0.0011395263718441129,-0.591675341129303,-0.05916309356689453,0.013688361272215843
590,14.893167247682868,3.389756917953491,0.03714359551668167,9.80312728881836,-0.0011716652661561966,-0.0019149377476423979,-0.0003796392120420933,-22.730356216430664,57.73131561279297,0.0011537933023646474,-0.5918926000595093,-0.058070264756679535,0.013017266057431698
591,14.90316724745935,2.490032911300659,-0.01225279550999403,9.809822082519531,-0.0011405838886275887,-0.0019465554505586624,-0.00036596902646124363,-22.69482421875,57.7309455871582,0.0011682891054078937,-0.59210205078125,-0.05695011466741562,0.012363970279693604
592,14.913167247235833,3.3498053550720215,-0.003463387954980135,9.80215835571289,-0.0011049259919673204,-0.001782841281965375,-0.0003639443893916905,-22.65895652770996,57.73057174682617,0.0011823272798210382,-0.5923101902008057,-0.05593241751194,0.011731098406016827
593,14.923167247012316,2.509676694869995,-0.012241505086421967,9.807985305786133,-0.0010667562019079924,-0.0018149891402572393,-0.00035443369415588677,-22.622840881347656,57.73019027709961,0.0011964035220444202,-0.5925130248069763,-0.05488739535212517,0.011120087467133999
594,14.933167246788798,3.2486412525177,0.07531514763832092,9.80120849609375,-0.0010203776182606816,-0.001654725638218224,-0.0003025265468750149,-22.586400985717773,57.72981262207031,0.001209907466545701,-0.5926862955093384,-0.05393800139427185,0.010535621084272861
595,14.943167246565281,2.4901773929595947,-0.09262546896934509,9.806957244873047,-0.0009793394710868597,-0.001685924711637199,-0.00029604206793010235,-22.549713134765625,57.729427337646484,0.001223335275426507,-0.5928555130958557,-0.052974943071603775,0.009974655695259571
596,14.953167246341764,3.2083263397216797,0.07473206520080566,9.800591468811035,-0.0009392705396749079,-0.0015295511111617088,-0.00029166421154513955,-22.512704849243164,57.729042053222656,0.0012361144181340933,-0.5930226445198059,-0.05209384858608246,0.009436646476387978
597,14.963167246118246,2.469463586807251,-0.05300011485815048,9.80856704711914,-0.0008964656735770404,-0.001559510244987905,-0.0002845842973329127,-22.47545051574707,57.72865295410156,0.0012489700457081199,-0.593185544013977,-0.05120592564344406,0.008923152461647987
598,14.973167245894729,3.208859920501709,-0.005418045911937952,9.794976234436035,-0.0008562288130633533,-0.0014069167664274573,-0.0002834522456396371,-22.437877655029297,57.72825622558594,0.0012606048258021474,-0.5933476090431213,-0.050399962812662125,0.008432717993855476
599,14.983167245671211,2.4075329303741455,0.10622028261423111,9.812102317810059,-0.0008130910573527217,-0.001438435516320169,-0.00027322140522301197,-22.400062561035156,57.72786331176758,0.001272659283131361,-0.5935042500495911,-0.04957351088523865,0.007966985926032066
600,14.993167245447694,3.1698384284973145,-0.12596431374549866,9.794347763061523,-0.000775262014940381,-0.0012911312514916062,-0.00026896339841187,-22.3619327545166,57.72746276855469,0.0012834167573601007,-0.5936582088470459,-0.04884267970919609,0.007522926665842533
601,15.003167245224176,2.4276890754699707,0.06629414111375809,9.811392784118652,-0.0007352432585321367,-0.0013300044229254127,-0.0002606038760859519,-22.32356071472168,57.72706604003906,0.0012945175403729081,-0.5938073992729187,-0.048077698796987534,0.007101789582520723
602,15.013167245000659,3.047940254211426,0.032659608870744705,9.797941207885742,-0.0006976565928198397,-0.0011904225684702396,-0.0002575804537627846,-22.28488540649414,57.72666549682617,0.0013046645326539874,-0.5939547419548035,-0.047374188899993896,0.006702185142785311
603,15.023167244777142,2.44868803024292,-0.05361352115869522,9.806109428405762,-0.0006607769173569977,-0.0012315878411754966,-0.00025232715415768325,-22.2459659576416,57.726253509521484,0.001314620953053236,-0.5940992832183838,-0.04667751118540764,0.006323706358671188
604,15.033167244553624,2.988133668899536,-0.008071270771324635,9.800735473632812,-0.0006272709579207003,-0.0010994261829182506,-0.0002448917948640883,-22.20674705505371,57.72584533691406,0.0013238906394690275,-0.5942396521568298,-0.04605596140027046,0.0059644184075295925
605,15.043167244330107,2.4072282314300537,0.06585733592510223,9.806564331054688,-0.0005927477614022791,-0.0011403472162783146,-0.0002393364702584222,-22.16728973388672,57.725433349609375,0.0013330078218132257,-0.5943765640258789,-0.045407094061374664,0.005624909419566393
606,15.05316724410659,2.9887521266937256,-0.08816584944725037,9.800806045532227,-0.0005614908295683563,-0.0010148580186069012,-0.00023719949240330607,-22.127532958984375,57.725013732910156,0.0013414382701739669,-0.5945124626159668,-0.04481969773769379,0.005303305108100176
607,15.063167243883072,2.387026309967041,0.06555397808551788,9.807393074035645,-0.0005303597426973283,-0.0010557007044553757,-0.00022828904911875725,-22.08753776550293,57.7245979309082,0.0013497924664989114,-0.5946434736251831,-0.04421864077448845,0.004999533761292696
608,15.073167243659555,2.96772837638855,-0.008465416729450226,9.800874710083008,-0.0005019230884499848,-0.0009351156768389046,-0.00022387724311556667,-22.047250747680664,57.724178314208984,0.0013574600452557206,-0.594771683216095,-0.04367905855178833,0.0047120521776378155
609,15.083167243436037,2.3472533226013184,0.025055769830942154,9.806710243225098,-0.0004728964704554528,-0.0009750260505825281,-0.00022059970069676638,-22.006725311279297,57.723758697509766,0.001364974887110293,-0.594897985458374,-0.04311215132474899,0.004441197495907545
610,15.09316724321252,2.947965621948242,-0.04874814301729202,9.802090644836426,-0.00044777998118661344,-0.0008605539333075285,-0.00021663827646989375,-21.96590805053711,57.72332763671875,0.0013719176640734076,-0.5950219631195068,-0.042627207934856415,0.004184730350971222
611,15.103167242989002,2.3474984169006348,-0.015017191879451275,9.807134628295898,-0.000420282653067261,-0.0008980011916719377,-0.00020827238040510565,-21.924856185913086,57.722900390625,0.0013787460047751665,-0.595141589641571,-0.04211494326591492,0.003944015596061945
612,15.113167242765485,2.8865575790405273,0.07055404782295227,9.802175521850586,-0.0003974626597482711,-0.0007909456617198884,-0.00020387246331665665,-21.883514404296875,57.722469329833984,0.0013850020477548242,-0.5952582359313965,-0.04166415333747864,0.003716370090842247
613,15.123167242541967,2.40775203704834,-0.05445794761180878,9.807129859924316,-0.00037562724901363254,-0.0008258547750301659,-0.00019909960974473506,-21.841936111450195,57.7220344543457,0.0013911437708884478,-0.5953720211982727,-0.04118603840470314,0.003501234343275428
614,15.13316724231845,2.7868261337280273,0.02945687621831894,9.803060531616211,-0.00035282326280139387,-0.0007286692853085697,-0.0001937720662681386,-21.800077438354492,57.72159957885742,0.0013967895647510886,-0.5954828858375549,-0.04076939821243286,0.0032991613261401653
615,15.143167242094933,2.4476051330566406,-0.05410023406147957,9.807136535644531,-0.0003337279486004263,-0.000757429632358253,-0.0001904904784169048,-21.757976531982422,57.72115707397461,0.0014023208059370518,-0.5955921411514282,-0.040339093655347824,0.003108025761321187
616,15.153167241871415,2.76668643951416,0.02919580042362213,9.802732467651367,-0.0003146969247609377,-0.0006728888256475329,-0.00018390515469945967,-21.71559715270996,57.72071075439453,0.0014073180500417948,-0.5956975817680359,-0.039949774742126465,0.00292779179289937
617,15.163167241647898,2.426640272140503,0.025636421516537666,9.807944297790527,-0.0002964954765047878,-0.0006920272717252374,-0.00017802693764679134,-21.672977447509766,57.72026824951172,0.0014122772263363004,-0.5957993865013123,-0.039553623646497726,0.00275798374786973
618,15.17316724142438,2.706977128982544,-0.011472630314528942,9.804337501525879,-0.0002787366684060544,-0.0006242500967346132,-0.00017427302373107523,-21.63008689880371,57.719818115234375,0.0014168547932058573,-0.5958990454673767,-0.03919162228703499,0.0025983478408306837
619,15.183167241200863,2.4865121841430664,0.026215603575110435,9.806407928466797,-0.0002637722354847938,-0.0006320866523310542,-0.0001696217805147171,-21.586950302124023,57.71936798095703,0.0014212416717782617,-0.5959963798522949,-0.03882962465286255,0.0024472835939377546
620,15.193167240977346,2.6272804737091064,-0.05234386771917343,9.805951118469238,-0.00024873760412447155,-0.000580332416575402,-0.00016530930588487536,-21.543548583984375,57.71891403198242,0.0014253997942432761,-0.596091091632843,-0.03850177302956581,0.002304831752553582
621,15.203167240753828,2.486398696899414,0.026176536455750465,9.806436538696289,-0.0002325160166947171,-0.0005786067922599614,-0.0001614880602573976,-21.499902725219727,57.71846008300781,0.0014293669955804944,-0.5961835980415344,-0.03816709667444229,0.0021716707851737738
622,15.21316724053031,2.5863399505615234,0.027199482545256615,9.805240631103516,-0.0002202508767368272,-0.0005405850824899971,-0.00015751573664601892,-21.455995559692383,57.71800231933594,0.0014330291887745261,-0.59627366065979,-0.03785973787307739,0.002045536180958152
623,15.223167240306793,2.5067100524902344,-0.013647196814417839,9.806833267211914,-0.00020644802134484053,-0.0005317407776601613,-0.000154636160004884,-21.411840438842773,57.71754455566406,0.001436538645066321,-0.5963625311851501,-0.037559207528829575,0.0019273083889856935
624,15.233167240083276,2.546658754348755,-0.013246246613562107,9.806819915771484,-0.00019632618932519108,-0.0005035487120039761,-0.00015193005674518645,-21.367427825927734,57.717079162597656,0.0014398955972865224,-0.596449613571167,-0.037272341549396515,0.0018148794770240784
625,15.243167239859758,2.5266106128692627,-0.013468805700540543,9.806463241577148,-0.0001844068174250424,-0.0004894257290288806,-0.0001476662582717836,-21.32276725769043,57.716609954833984,0.0014430617447942495,-0.5965341925621033,-0.03698547184467316,0.0017092764610424638
626,15.253167239636241,2.5061495304107666,0.02630743756890297,9.806490898132324,-0.00017251069948542863,-0.000467570498585701,-0.00014186579210218042,-21.277856826782227,57.71614074707031,0.0014460372040048242,-0.5966154932975769,-0.03671909496188164,0.0016104872338473797
627,15.263167239412724,2.5473527908325195,-0.09328192472457886,9.806855201721191,-0.0001622812560526654,-0.0004523869720287621,-0.0001383844792144373,-21.232690811157227,57.71566390991211,0.0014488601591438055,-0.596694827079773,-0.0364595465362072,0.0015175576554611325
628,15.273167239189206,2.465231418609619,0.10586231201887131,9.807299613952637,-0.00015329403686337173,-0.0004343101754784584,-0.00013152704923413694,-21.18727684020996,57.71519088745117,0.0014515685616061091,-0.5967699885368347,-0.03620683029294014,0.0014297736342996359
629,15.283167238965689,2.506854295730591,-0.05372340604662895,9.80652141571045,-0.0001451160351280123,-0.00041785798384808004,-0.0001289684441871941,-21.14161491394043,57.7147102355957,0.0014540862757712603,-0.5968438982963562,-0.03596777468919754,0.0013466750970110297
630,15.293167238742171,2.4859840869903564,0.02605382166802883,9.80768871307373,-0.00013443196075968444,-0.00040040432941168547,-0.00012317902292124927,-21.095705032348633,57.7142333984375,0.001456527621485293,-0.5969144105911255,-0.0357423797249794,0.0012696951162070036
631,15.303167238518654,2.5259437561035156,0.026460709050297737,9.806527137756348,-0.00012264330871403217,-0.00038526440039277077,-8.806358528090641e-05,-21.049543380737305,57.713748931884766,0.0014587783953174949,-0.5969648957252502,-0.03552381321787834,0.0011994572123512626
632,15.313167238295136,2.486325979232788,-0.013963240198791027,9.807327270507812,-0.00011695537978084758,-0.0003697944921441376,-8.383848035009578e-05,-21.00313377380371,57.71326446533203,0.0014609146164730191,-0.597012996673584,-0.03530524671077728,0.001132476725615561
633,15.323167238071619,2.466294527053833,-0.014180370606482029,9.809637069702148,-0.00010993314936058596,-0.00035502572427503765,-8.095829980447888e-05,-20.95647621154785,57.71277618408203,0.0014631652738898993,-0.597059428691864,-0.035107169300317764,0.001069517689757049
634,15.333167237848102,2.5058388710021973,0.02622588723897934,9.803133010864258,-0.00010425589425722137,-0.0003400814312044531,-7.776185520924628e-05,-20.90957260131836,57.71228790283203,0.0014648818178102374,-0.5971041321754456,-0.034915924072265625,0.0010098111815750599
635,15.343167237624584,2.446648359298706,-0.05440276861190796,9.811955451965332,-9.918232535710558e-05,-0.00032735924469307065,-7.586792344227433e-05,-20.8624210357666,57.711795806884766,0.001466941786929965,-0.5971474647521973,-0.034724678844213486,0.0009530099923722446
636,15.353167237401067,2.505357265472412,0.06620857119560242,9.802766799926758,-9.33806732064113e-05,-0.0003123082860838622,-7.356542482739314e-05,-20.815021514892578,57.7113037109375,0.0014684295747429132,-0.597189724445343,-0.034540265798568726,0.0008995325188152492
637,15.36316723717755,2.446589231491089,-0.05441708490252495,9.81235122680664,-8.888699085218832e-05,-0.00030000743572600186,-7.206493319245055e-05,-20.767377853393555,57.7108039855957,0.0014702987391501665,-0.597230851650238,-0.034376341849565506,0.0008486284059472382
638,15.373167236954032,2.4653046131134033,0.06577818095684052,9.803187370300293,-8.470311877317727e-05,-0.0002860073291230947,-7.159153756219894e-05,-20.719486236572266,57.71030807495117,0.0014716339064761996,-0.597271740436554,-0.03421924635767937,0.0008001217502169311
639,15.383167236730515,2.506530284881592,-0.053804319351911545,9.811565399169922,-7.986299897311255e-05,-0.0002756912144832313,-6.873973325127736e-05,-20.67134666442871,57.70980453491211,0.0014732741983607411,-0.5973111391067505,-0.03405532240867615,0.0007543870015069842
640,15.393167236506997,2.4256691932678223,0.025351595133543015,9.803990364074707,-7.403264316963032e-05,-0.0002625386987347156,-6.633975135628134e-05,-20.622966766357422,57.70930099487305,0.0014744567451998591,-0.5973492860794067,-0.03389822691679001,0.0007119919755496085
641,15.40316723628348,2.4860634803771973,-0.014025911688804626,9.81235122680664,-7.06924547557719e-05,-0.00025225692661479115,-6.513772677863017e-05,-20.5743350982666,57.70879364013672,0.001476020785048604,-0.5973865389823914,-0.03375479206442833,0.0006715100025758147
642,15.413167236059962,0.3384862244129181,-1.4455070495605469,14.194007873535156,-0.06422381848096848,-0.03523578867316246,-0.008870050311088562,-20.525672912597656,57.70813751220703,0.0019160842057317495,-0.6024752259254456,-0.013571585528552532,-0.0361328125
643,15.423167235836445,4.306949138641357,3.2839107513427734,4.2774658203125,0.020909858867526054,0.010311806574463844,-0.00596922542899847,-20.476577758789062,57.70780944824219,0.001802902203053236,-0.6058923602104187,-0.019479697570204735,-0.0241394005715847
644,15.433167235612927,2.351300001144409,-0.657734751701355,9.997283935546875,0.016033008694648743,0.008152768015861511,-0.003916086629033089,-20.42724609375,57.70741653442383,0.001708564697764814,-0.6081342101097107,-0.024151546880602837,-0.014953614212572575
645,15.44316723538941,2.4093849658966064,-0.4158205986022949,9.967085838317871,0.01226817723363638,0.006408961024135351,-0.0025757586117833853,-20.37767791748047,57.70697784423828,0.001630058279260993,-0.6096094250679016,-0.027819359675049782,-0.007934571243822575
646,15.453167235165893,2.368600845336914,-0.2952793538570404,9.941850662231445,0.0093543054535985,0.004995948169380426,-0.001614688546396792,-20.327871322631836,57.70650100708008,0.0015648651169613004,-0.6105341911315918,-0.03068803809583187,-0.0025634763296693563
647,15.463167234942375,2.4476940631866455,-0.1737065464258194,9.927239418029785,0.007088718470185995,0.003854782320559025,-0.0009452226222492754,-20.277822494506836,57.70600891113281,0.001511535607278347,-0.6110755801200867,-0.03289419040083885,0.00149636366404593
648,15.473167234718858,2.4280004501342773,-0.1332075297832489,10.542481422424316,0.006532319355756044,0.0035792000126093626,-0.00040645041735842824,-20.227529525756836,57.705501556396484,0.0015316009521484375,-0.6113086938858032,-0.034950077533721924,0.0052392445504665375
649,15.48316723449534,2.388216972351074,-0.17325887084007263,9.793631553649902,0.0044957553036510944,0.00250779977068305,-5.505756416823715e-05,-20.176998138427734,57.70497512817383,0.0015501785092055798,-0.6113402247428894,-0.03637758642435074,0.007815143093466759
650,15.493167234271823,2.466672897338867,-0.012122856453061104,9.790848731994629,0.0030202502384781837,0.0017142994329333305,0.00015350795001722872,-20.126222610473633,57.70444107055664,0.0015670013381168246,-0.6112526655197144,-0.037367962300777435,0.009545564651489258
651,15.503167234048306,2.3476388454437256,-0.09321639686822891,9.792441368103027,0.0019463227363303304,0.0010833789128810167,0.00037393381353467703,-20.075212478637695,57.70389938354492,0.0015822219429537654,-0.6110385060310364,-0.03798267990350723,0.010660586878657341
652,15.513167233824788,2.505986452102661,0.06858958303928375,9.790383338928223,0.0011631131637841463,0.0006517063593491912,0.0001884019875433296,-20.02395248413086,57.7033576965332,0.0015956496354192495,-0.6109306812286377,-0.03835834190249443,0.011326927691698074
653,15.52316723360127,2.3077304363250732,-0.09350337088108063,9.793594360351562,0.0005966569297015667,0.0002615039993543178,0.001240390818566084,-19.972463607788086,57.70280456542969,0.0016075896564871073,-0.610220193862915,-0.03850860521197319,0.011668313294649124
654,15.533167233377753,0.6856585144996643,0.08926688879728317,9.809526443481445,0.00016754608077462763,-0.00042340674553997815,-0.002213562373071909,-19.92090606689453,57.70226287841797,0.001619529677554965,-0.6114880442619324,-0.03826271742582321,0.01176515780389309
655,15.543167233154236,0.5464131832122803,0.007762943860143423,9.813838005065918,-0.0001090780133381486,-0.0011291418923065066,0.0008350833668373525,-19.869293212890625,57.701717376708984,0.001631889259442687,-0.6110097169876099,-0.037620678544044495,0.011702342890202999
656,15.553167232930718,-4.993107795715332,-0.09129521250724792,9.85702133178711,-0.00034375578979961574,-0.002924952656030655,0.00085678999312222,-19.818180084228516,57.701171875,0.0016486358363181353,-0.6105185747146606,-0.03594045341014862,0.011505070142447948
657,15.563167232707201,1.6657867431640625,0.019588425755500793,9.781913757324219,-0.0004989246954210103,-0.002616612706333399,0.0008928627939894795,-19.766902923583984,57.70062255859375,0.001662673894315958,-0.6100066304206848,-0.03444464132189751,0.011218891479074955
658,15.573167232483684,-2.5951197147369385,0.0542026162147522,9.825200080871582,-0.000611903378739953,-0.003276483155786991,0.0009290595189668238,-19.715885162353516,57.70008087158203,0.0016780853038653731,-0.6094738245010376,-0.032566338777542114,0.01086798682808876
659,15.583167232260166,1.80561363697052,-0.019078493118286133,9.776601791381836,-0.0006770582403987646,-0.002733868546783924,0.0008764332160353661,-19.66468620300293,57.69953918457031,0.0016902541974559426,-0.6089712977409363,-0.031002227216959,0.010479784570634365
660,15.593167232036649,-2.674859046936035,-0.026739012449979782,9.825861930847168,-0.0007232454954646528,-0.0033333159517496824,0.0007033403962850571,-19.613758087158203,57.69899368286133,0.0017038726946339011,-0.608568012714386,-0.029096603393554688,0.01006518118083477
661,15.603167231813131,2.1645877361297607,0.024571727961301804,9.775766372680664,-0.0007402982446365058,-0.0025734526570886374,0.000704746984411031,-19.562610626220703,57.69845199584961,0.0017141723074018955,-0.6081641316413879,-0.027600793167948723,0.009640822187066078
662,15.613167231589614,-2.33628511428833,0.05675290524959564,9.822110176086426,-0.0007511561852879822,-0.00305780372582376,0.0006786665762774646,-19.511699676513672,57.697914123535156,0.0017255782149732113,-0.6077749729156494,-0.02585226483643055,0.009210261516273022
663,15.623167231366097,2.4449074268341064,-0.05263024568557739,9.775389671325684,-0.000740943884011358,-0.0022160890512168407,0.0006521538598462939,-19.46054458618164,57.69737243652344,0.0017336272867396474,-0.6074013113975525,-0.024595510214567184,0.008785564452409744
664,15.63316723114258,-2.1167750358581543,0.058966994285583496,9.821526527404785,-0.0007351529784500599,-0.0026716783177107573,0.0005526089807972312,-19.40960121154785,57.696834564208984,0.0017427443526685238,-0.6070842146873474,-0.02306554839015007,0.008364221081137657
665,15.643167230919062,2.6844558715820312,-0.0502571202814579,9.77464485168457,-0.0007108005229383707,-0.0017894875491037965,0.0005509887705557048,-19.358386993408203,57.696292877197266,0.0017484283307567239,-0.6067684888839722,-0.022034188732504845,0.007956840097904205
666,15.653167230695544,-1.8571833372116089,0.06160455569624901,9.82516098022461,-0.0006914115510880947,-0.0022438999731093645,0.0005254551651887596,-19.307361602783203,57.69575500488281,0.0017555617960169911,-0.6064674258232117,-0.02075694315135479,0.00756057957187295
667,15.663167230472027,2.92366886138916,-0.007880425080657005,9.77694034576416,-0.0006602942012250423,-0.0013514637248590589,0.0005278136814013124,-19.25604248046875,57.695213317871094,0.001759490929543972,-0.6061648726463318,-0.019978301599621773,0.007182152010500431
668,15.67316723024851,-1.6375077962875366,0.06382149457931519,9.824647903442383,-0.0006410376518033445,-0.0018220491474494338,0.0004630914772860706,-19.20488929748535,57.69468307495117,0.0017648314824327826,-0.6058995127677917,-0.018933283165097237,0.006814771797508001
669,15.683167230024992,3.1042356491088867,-0.08612285554409027,9.778115272521973,-0.0006095694843679667,-0.0009358710958622396,0.00047270552022382617,-19.153425216674805,57.69413757324219,0.0017670821398496628,-0.605628490447998,-0.0184005293995142,0.006465427577495575
670,15.693167229801475,-1.3973294496536255,0.02625705674290657,9.826066017150879,-0.0005886271828785539,-0.0014305445365607738,0.000454037421150133,-19.102102279663086,57.69359588623047,0.0017708968371152878,-0.6053681969642639,-0.017580905929207802,0.00612808670848608
671,15.703167229577957,3.3031842708587646,-0.0041554169729352,9.778489112854004,-0.0005576263647526503,-0.0005620243027806282,0.0004555916239041835,-19.050447463989258,57.69305419921875,0.0017716598231345415,-0.6051072478294373,-0.017259886488318443,0.005808510351926088
672,15.71316722935444,-1.2374992370605469,0.027850883081555367,9.827903747558594,-0.0005353739252313972,-0.0010816747089847922,0.0003991489647887647,-18.998918533325195,57.69251251220703,0.0017741775372996926,-0.6048785448074341,-0.016638340428471565,0.005501694977283478
673,15.723167229130922,3.4830434322357178,-0.0023846363183110952,9.778101921081543,-0.0005072759813629091,-0.00023254826373886317,0.00041012445581145585,-18.947038650512695,57.69197082519531,0.0017736053559929132,-0.6046435236930847,-0.016494905576109886,0.005210980772972107
674,15.733167228907405,-1.0376094579696655,0.029873354360461235,9.833176612854004,-0.0004867098468821496,-0.0007780402665957808,0.00039161398308351636,-18.895265579223633,57.691429138183594,0.0017753218999132514,-0.6044191718101501,-0.016050944104790688,0.004932052921503782
675,15.743167228683888,3.623386859893799,-0.04102597385644913,9.776179313659668,-0.00045899441465735435,4.6901070163585246e-05,0.00039050259510986507,-18.843130111694336,57.69088363647461,0.0017737578600645065,-0.6041954755783081,-0.016085093840956688,0.004669004585593939
676,15.75316722846037,-0.897662878036499,0.03126832842826843,9.832371711730957,-0.0004396687727421522,-0.0005213250988163054,0.00033993175020441413,-18.79108428955078,57.69034194946289,0.0017744064098224044,-0.6040005683898926,-0.01578456722199917,0.004417040850967169
677,15.763167228236853,3.7829346656799316,0.0005497753154486418,9.782243728637695,-0.00041617979877628386,0.0002807509736157954,0.0003473857359495014,-18.738658905029297,57.689788818359375,0.001772384624928236,-0.6038017272949219,-0.015948491171002388,0.004178530536592007
678,15.773167228013335,-0.7572532892227173,-0.007328641600906849,9.830046653747559,-0.000397724739741534,-0.000308074988424778,0.0003350507467985153,-18.686309814453125,57.68924331665039,0.0017723464407026768,-0.6036095023155212,-0.01576407626271248,0.00395059771835804
679,15.783167227789818,3.922943353652954,0.001923454343341291,9.78258228302002,-0.0003737006336450577,0.00047300817095674574,0.0003329862665850669,-18.633573532104492,57.688690185546875,0.0017696762224659324,-0.6034188270568848,-0.016044113785028458,0.0037364293821156025
680,15.7931672275663,-0.657644510269165,0.033654894679784775,9.831161499023438,-0.00035739564918912947,-0.00013422765186987817,0.0002868286974262446,-18.580896377563477,57.68814468383789,0.0017691039247438312,-0.6032545566558838,-0.015968982130289078,0.0035316110588610172
681,15.803167227342783,4.023406982421875,-0.03711220622062683,9.78368091583252,-0.00033555194386281073,0.0006249147118069232,0.00029281037859618664,-18.527820587158203,57.68758773803711,0.0017660140292719007,-0.6030870079994202,-0.016324151307344437,0.003339306451380253
682,15.813167227119266,-0.5175909996032715,0.03506730496883392,9.831507682800293,-0.0003216017212253064,4.6723139348614495e-06,0.0002861417306121439,-18.474796295166016,57.687034606933594,0.0017650603549554944,-0.6029228568077087,-0.016324151307344437,0.0031549956183880568
683,15.823167226895748,4.103475570678711,-0.036354389041662216,9.784388542175293,-0.00030095805414021015,0.0007443745853379369,0.0002830144658219069,-18.421363830566406,57.68647384643555,0.0017616653349250555,-0.6027607321739197,-0.016754454001784325,0.0029825123492628336
684,15.83316722667223,-0.3970922827720642,-0.003723517991602421,9.831862449645996,-0.0002875855134334415,0.00011280720354989171,0.0002388184075243771,-18.367969512939453,57.685916900634766,0.0017604446038603783,-0.6026238203048706,-0.016815925016999245,0.0028176973573863506
685,15.843167226448713,4.18314266204834,0.004410054534673691,9.784323692321777,-0.0002706561062950641,0.0008337199105881155,0.0002466950681991875,-18.314157485961914,57.68534851074219,0.0017567825270816684,-0.6024824976921082,-0.017294038087129593,0.002662580693140626
686,15.853167226225196,-0.31741517782211304,0.0370653010904789,9.832221984863281,-0.00025784922763705254,0.00019342632731422782,0.0002481697010807693,-18.260377883911133,57.68478775024414,0.0017553329234942794,-0.6023403406143188,-0.017410151660442352,0.0025148014537990093
687,15.863167226001679,4.26366662979126,-0.03481636941432953,9.785396575927734,-0.00024190341355279088,0.0008987189503386617,0.0002443494158796966,-18.2061710357666,57.68422317504883,0.0017515564104542136,-0.6022003293037415,-0.01792241632938385,0.0023761573247611523
688,15.873167225778161,-0.23646625876426697,-0.04213482141494751,9.832202911376953,-0.00023201954900287092,0.0002524614683352411,0.00019802883616648614,-18.151988983154297,57.683650970458984,0.0017499923706054688,-0.6020867228507996,-0.01806584931910038,0.002243183786049485
689,15.883167225554644,4.322937488555908,0.0457485057413578,9.783799171447754,-0.00021488877246156335,0.0009426858159713447,0.0002076021337416023,-18.097375869750977,57.68307876586914,0.001745948800817132,-0.6019681096076965,-0.018598604947328568,0.002120025223121047
690,15.893167225331126,-0.15676748752593994,-0.0013369154185056686,9.837138175964355,-0.00020598061382770538,0.0002917363599408418,0.00021724787075072527,-18.04277801513672,57.68251037597656,0.0017446136334910989,-0.6018437147140503,-0.018776189535856247,0.002001965418457985
691,15.903167225107609,4.383898735046387,-0.03367472067475319,9.781057357788086,-0.00019435983267612755,0.0009680959628894925,0.00021045739413239062,-17.987743377685547,57.68192672729492,0.001740531879477203,-0.6017229557037354,-0.019329434260725975,0.0018905657343566418
692,15.913167224884091,-0.11706488579511642,0.03904414921998978,9.83521556854248,-0.0001844564249040559,0.00031569538987241685,0.0001627574529265985,-17.932716369628906,57.68135070800781,0.001738967839628458,-0.6016297340393066,-0.019507018849253654,0.001784848514944315
693,15.923167224660574,4.4636006355285645,0.007113223895430565,9.785550117492676,-0.0001730928779579699,0.0009813897777348757,0.0001766719069564715,-17.877248764038086,57.68077087402344,0.0017351149581372738,-0.6015284061431885,-0.020060263574123383,0.0016856383299455047
694,15.933167224437057,-0.07652009278535843,-0.0005664705531671643,9.832917213439941,-0.00016299754497595131,0.0003262320824433118,0.0001959000073838979,-17.82178497314453,57.68019104003906,0.0017335510347038507,-0.6014162302017212,-0.02025151066482067,0.0015922080492600799
695,15.94316722421354,4.464150428771973,-0.032932620495557785,9.786253929138184,-0.0001535814953967929,0.0009803451830521226,0.00018716487102210522,-17.76587677001953,57.679603576660156,0.0017297744052484632,-0.601309061050415,-0.02081841602921486,0.0015041740844026208
696,15.953167223990022,0.023184766992926598,0.04045147821307182,9.832880020141602,-0.0001456328755011782,0.00032517898944206536,0.00013528064300771803,-17.70996856689453,57.67901611328125,0.0017282867338508368,-0.601231575012207,-0.021009661257267,0.0014207040658220649
697,15.963167223766504,4.503854274749756,0.007444364484399557,9.78618049621582,-0.00013715538079850376,0.000969599699601531,0.00015183177310973406,-17.653608322143555,57.67843246459961,0.0017245864728465676,-0.6011447310447693,-0.021556075662374496,0.0013420877512544394
698,15.973167223542987,0.043309371918439865,0.040635377168655396,9.833253860473633,-0.0001254572853213176,0.00031653858604840934,0.00020020161173306406,-17.597244262695312,57.6778450012207,0.0017232131212949753,-0.6010297536849976,-0.021740490570664406,0.0012701625237241387
699,15.98316722331947,4.504817962646484,-0.07259286940097809,9.786125183105469,-0.00011876507051056251,0.0009509706287644804,0.00019330235954839736,-17.540430068969727,57.677249908447266,0.001719627296552062,-0.6009191274642944,-0.022286906838417053,0.0012020723661407828
700,15.993167223095952,0.12342553585767746,0.04145129397511482,9.832456588745117,-0.00011352798901498318,0.0002992097579408437,0.00013628893066197634,-17.483604431152344,57.676658630371094,0.0017182922456413507,-0.600841224193573,-0.022444000467658043,0.001136995037086308
701,16.003167222872435,4.524097919464111,0.007577742915600538,9.786823272705078,-0.00010632511111907661,0.0009265529806725681,0.00015664583770558238,-17.426326751708984,57.676063537597656,0.0017148208571597934,-0.6007514595985413,-0.02299041487276554,0.0010760396253317595
702,16.013167222648917,0.12396556884050369,0.0014326218515634537,9.832077026367188,-0.0001014729859889485,0.0002790029102470726,0.00019311773939989507,-17.369035720825195,57.67546844482422,0.001713561941869557,-0.6006405353546143,-0.02314751036465168,0.0010178553638979793
703,16.0231672224254,4.564628601074219,-0.03203687071800232,9.787517547607422,-9.579100151313469e-05,0.000898639322258532,0.00017718173330649734,-17.311288833618164,57.674861907958984,0.0017102431738749146,-0.6005391478538513,-0.023652944713830948,0.0009629298001527786
704,16.033167222201882,0.18365676701068878,0.042040422558784485,9.832050323486328,-9.181295899907127e-05,0.00025371575611643493,0.00011305237421765924,-17.25352668762207,57.67426300048828,0.0017091368790715933,-0.6004743576049805,-0.023810038343071938,0.0009102980839088559
705,16.043167221978365,4.544742107391357,-0.032275017350912094,9.788237571716309,-8.539792179362848e-05,0.0008678472368046641,0.00013330651563592255,-17.1953067779541,57.67365646362305,0.0017060469835996628,-0.600398063659668,-0.024308642372488976,0.0008613364771008492
706,16.053167221754848,0.1837642341852188,0.04202334210276604,9.830901145935059,-8.238568989327177e-05,0.00022604162222705781,0.00017625372856855392,-17.13707160949707,57.67304992675781,0.0017050552414730191,-0.6002970337867737,-0.024438414722681046,0.0008140900754369795
707,16.06316722153133,4.604842662811279,-0.031677138060331345,9.78740119934082,-7.678664405830204e-05,0.0008345473324880004,0.0001548601867398247,-17.07837677001953,57.67243957519531,0.001702003413811326,-0.6002082228660583,-0.024916529655456543,0.0007700563292019069
708,16.073167221307813,0.20428349077701569,0.0022198024671524763,9.832037925720215,-7.372896652668715e-05,0.00019759032875299454,8.548978803446516e-05,-17.01966094970703,57.67182540893555,0.0017011641757562757,-0.6001591682434082,-0.025025811046361923,0.0007277913391590118
709,16.083167221084295,4.564523220062256,0.007878833450376987,9.787370681762695,-6.830015627201647e-05,0.0008000897942110896,0.00010996771743521094,-16.960487365722656,57.67121124267578,0.0016982650849968195,-0.6000963449478149,-0.02549026533961296,0.0006886305054649711
710,16.093167220860778,0.24561765789985657,-0.11736162006855011,9.831636428833008,-6.686327833449468e-05,0.0001674690138315782,0.00015723130491096526,-16.901290893554688,57.67058563232422,0.001697540283203125,-0.6000963449478149,-0.02549026533961296,0.0006886305054649711
711,16.10316722063726,4.603772163391113,0.08826718479394913,9.787312507629395,-6.112454138929024e-05,0.0007649980834685266,0.00013942105579189956,-16.84163475036621,57.669960021972656,0.001694755512289703,-0.5999262928962708,-0.02600935846567154,0.0006152224959805608
712,16.113167220413743,0.2444499284029007,0.0026184881571680307,9.831633567810059,-5.7214361731894314e-05,0.0001370816898997873,7.152638136176392e-05,-16.78195571899414,57.669334411621094,0.0016941451467573643,-0.5999262928962708,-0.02600935846567154,0.0006152224959805608
713,16.123167220190226,4.5846991539001465,0.008043361827731133,9.788043022155762,-5.434792547021061e-05,0.0007306429324671626,0.00010064934758702293,-16.721817016601562,57.668704986572266,0.0016915511805564165,-0.5998276472091675,-0.026521623134613037,0.000551257049664855
714,16.133167219966708,0.27495455741882324,-0.03707665205001831,9.830854415893555,-5.247007720754482e-05,0.00010761279554571956,0.00015088067448232323,-16.661651611328125,57.66807556152344,0.0016910552512854338,-0.5998276472091675,-0.026521623134613037,0.000551257049664855
715,16.14316721974319,4.584774971008301,0.00802072323858738,9.788390159606934,-4.895977326668799e-05,0.0006962012266740203,0.0001266311592189595,-16.601030349731445,57.66743850708008,0.0016886139055714011,-0.5996688008308411,-0.026965584605932236,0.0004930678987875581
716,16.153167219519673,0.304191529750824,0.04322220757603645,9.83045768737793,-4.708638516603969e-05,7.751338125672191e-05,5.616525959339924e-05,-16.540376663208008,57.666805267333984,0.0016882324125617743,-0.5996688008308411,-0.026965584605932236,0.0004930678987875581
717,16.163167219296156,4.565269470214844,-0.03220173344016075,9.788363456726074,-4.3368916522013023e-05,0.0006637404439970851,8.568832708988339e-05,-16.479267120361328,57.66616439819336,0.0016859053866937757,-0.5995875000953674,-0.027402717620134354,0.00044120236998423934
718,16.17316721907264,0.30510377883911133,-0.03678273409605026,9.83045482635498,-4.1588806197978556e-05,4.897228427580558e-05,0.00014032782928552479,-16.418128967285156,57.66551971435547,0.0016856384463608265,-0.5995875000953674,-0.027402717620134354,0.00044120236998423934
719,16.18316721884912,4.594915390014648,0.00809052586555481,9.787936210632324,-3.690844459924847e-05,0.0006318491068668664,0.00011594083480304107,-16.356531143188477,57.66487503051758,0.0016833876725286245,-0.5994403958320618,-0.027792038396000862,0.00039615630521439016
720,16.193167218625604,0.3143331706523895,0.043309010565280914,9.830830574035645,-3.733625999302603e-05,2.165602745662909e-05,4.190268009551801e-05,-16.294902801513672,57.66423034667969,0.0016832351684570312,-0.5994403958320618,-0.027792038396000862,0.00039615630521439016
721,16.203167218402086,4.574977397918701,0.007868930697441101,9.788300514221191,-3.535603536874987e-05,0.0006006667972542346,7.269462366821244e-05,-16.232816696166992,57.66358184814453,0.0016811370151117444,-0.5993747115135193,-0.02814720757305622,0.00035447473055683076
722,16.21316721817857,0.3248118460178375,0.0034082976635545492,9.830440521240234,-3.279815427958965e-05,-3.969274985138327e-06,0.00012577847519423813,-16.170698165893555,57.662933349609375,0.001681098947301507,-0.5993747115135193,-0.02814720757305622,0.00035447473055683076
723,16.22316721795505,4.5654520988464355,-0.03224995359778404,9.787897109985352,-3.054629632970318e-05,0.0005714332219213247,9.925557242240757e-05,-16.108123779296875,57.66227722167969,0.0016790771624073386,-0.5992459058761597,-0.02847505733370781,0.00031811746885068715
724,16.233167217731534,0.3548664450645447,0.003715098835527897,9.830424308776855,-3.0417439120355994e-05,-2.943960134871304e-05,3.140163971693255e-05,-16.045515060424805,57.661624908447266,0.001679115230217576,-0.5992459058761597,-0.02847505733370781,0.00031811746885068715
725,16.243167217508017,4.5546674728393555,0.04763127863407135,9.788261413574219,-2.7656285965349525e-05,0.0005446096765808761,5.922005220782012e-05,-15.982450485229492,57.66096496582031,0.0016772078815847635,-0.5991941690444946,-0.028775585815310478,0.00028481779736466706
726,16.2531672172845,0.3453367054462433,-0.03639332205057144,9.830044746398926,-2.5940204068319872e-05,-5.185212648939341e-05,0.00010705510067055002,-15.919352531433105,57.66030502319336,0.0016773223178461194,-0.5991941690444946,-0.028775585815310478,0.00028481779736466706
727,16.263167217060982,4.545131206512451,0.00751511612907052,9.788626670837402,-2.3051397874951363e-05,0.0005174920079298317,9.023184247780591e-05,-15.85580062866211,57.65964126586914,0.0016755294054746628,-0.5990808010101318,-0.029035132378339767,0.00025669074966572225
728,16.273167216837464,0.37496110796928406,0.003912662621587515,9.829647064208984,-2.2354146494762972e-05,-7.41451294743456e-05,3.364557051099837e-05,-15.792211532592773,57.65897750854492,0.0016757202101871371,-0.5990808010101318,-0.029035132378339767,0.00025669074966572225
729,16.283167216613947,4.546010494232178,-0.07248924672603607,9.788987159729004,-2.0951601982233115e-05,0.0004934346070513129,6.533548003062606e-05,-15.728168487548828,57.65830612182617,0.0016740417340770364,-0.5990241765975952,-0.029287848621606827,0.0002318495826330036
730,16.29316721639043,0.35416796803474426,0.08369455486536026,9.827367782592773,-1.888606493594125e-05,-9.450375364394858e-05,0.00010789314546855167,-15.664090156555176,57.65763473510742,0.001674117986112833,-0.5990241765975952,-0.029287848621606827,0.0002318495826330036
731,16.303167216166912,4.555210590362549,0.007598342373967171,9.793161392211914,-1.7241094610653818e-05,0.00046972298878245056,9.109012898989022e-05,-15.599557876586914,57.65696334838867,0.0016727447509765625,-0.5989101529121399,-0.029492754489183426,0.000211091959499754
732,16.313167215943395,0.36545589566230774,-0.03619862347841263,9.8250732421875,-1.6939053239184432e-05,-0.00011363710655132309,3.9715345337754115e-05,-15.534988403320312,57.656288146972656,0.0016728972550481558,-0.5989101529121399,-0.029492754489183426,0.000211091959499754
733,16.323167215719877,4.524827003479004,0.04727458581328392,9.792780876159668,-1.5892879673629068e-05,0.00044820152106694877,6.593533180421218e-05,-15.46996784210205,57.655609130859375,0.0016715622041374445,-0.5988497138023376,-0.029683999717235565,0.00019224945572204888
734,16.33316721549636,0.395486980676651,-0.035888683050870895,9.825055122375488,-1.5458499547094107e-05,-0.0001304675970459357,9.793781646294519e-05,-15.404908180236816,57.654930114746094,0.001671752892434597,-0.5988497138023376,-0.029683999717235565,0.00019224945572204888
735,16.343167215272842,4.505276679992676,0.007056682836264372,9.793158531188965,-1.4735317563463468e-05,0.0004285915638320148,8.161177538568154e-05,-15.339397430419922,57.65424728393555,0.0016704940935596824,-0.598746657371521,-0.029861586168408394,0.0001748963404679671
736,16.353167215049325,0.395099401473999,0.00410545663908124,9.825054168701172,-1.4707706213812344e-05,-0.00014690104580949992,3.900511364918202e-05,-15.273848533630371,57.653564453125,0.0016707610338926315,-0.598746657371521,-0.029861586168408394,0.0001748963404679671
737,16.363167214825808,4.505302906036377,0.007049549836665392,9.793146133422852,-1.4523760000884067e-05,0.00040938708116300404,5.606736522167921e-05,-15.207850456237793,57.65287399291992,0.0016695784870535135,-0.5986924171447754,-0.030018679797649384,0.00015811953926458955
738,16.37316721460229,0.39512497186660767,0.0041022091172635555,9.824671745300293,-1.2542910553747788e-05,-0.00016148448048625141,7.995316991582513e-05,-15.14181137084961,57.65218734741211,0.0016698837280273438,-0.5986924171447754,-0.030018679797649384,0.00015811953926458955
739,16.383167214378773,4.495324611663818,0.006935909856110811,9.791613578796387,-1.3939881682745181e-05,0.00039216867298819125,6.585758092114702e-05,-15.075324058532715,57.651493072509766,0.0016685867449268699,-0.5986089706420898,-0.030141623690724373,0.000142902325023897
740,16.393167214155255,0.39554837346076965,-0.03590016067028046,9.82848834991455,-1.2778536074620206e-05,-0.0001760535960784182,3.2732754334574565e-05,-15.008798599243164,57.65079879760742,0.0016691589262336493,-0.5985901951789856,-0.030032340437173843,0.00013557083730120212
741,16.403167213931738,4.494924068450928,0.04692770540714264,9.789698600769043,-1.1549704140634276e-05,0.00037661276292055845,4.813780833501369e-05,-14.94182300567627,57.65010070800781,0.001667938195168972,-0.5985626578330994,-0.030250906944274902,0.00012893887469545007
742,16.41316721370822,0.39556705951690674,-0.035902779549360275,9.828484535217285,-1.0521664989937562e-05,-0.00018850019841920584,6.462492456194013e-05,-14.874809265136719,57.6494026184082,0.0016685867449268699,-0.5985255241394043,-0.030141623690724373,0.00012289088044781238
743,16.423167213484703,4.475358963012695,0.006713601760566235,9.788939476013184,-1.151395554188639e-05,0.00036226303200237453,5.145649629412219e-05,-14.807348251342773,57.64870071411133,0.0016673660138621926,-0.59849613904953,-0.030346529558300972,0.00011627833009697497
744,16.433167213261186,0.4147467613220215,0.04429933801293373,9.828475952148438,-9.99455642158864e-06,-0.0001997274812310934,2.674201641639229e-05,-14.739847183227539,57.64799499511719,0.0016680144472047687,-0.598480761051178,-0.030237246304750443,0.00011054377682739869
745,16.44316721303767,4.465793609619141,-0.033393364399671555,9.78969955444336,-7.963640200614464e-06,0.00034797165426425636,3.90955428883899e-05,-14.67189884185791,57.64728927612305,0.0016668700845912099,-0.5984583497047424,-0.03043532185256481,0.00010596906213322654
746,16.45316721281415,0.4051777720451355,0.00419507035985589,9.82809829711914,-8.74156194186071e-06,-0.00021023362933192402,4.883747169515118e-05,-14.603910446166992,57.64657974243164,0.0016675567021593451,-0.5984302759170532,-0.030312377959489822,0.00010094572644447908
747,16.463167212590633,4.44580602645874,-0.03360792621970177,9.789704322814941,-9.492293429502752e-06,0.00033550383523106575,3.826594911515713e-05,-14.535478591918945,57.64586639404297,0.0016664504073560238,-0.5984084010124207,-0.03050362318754196,9.549541573505849e-05
748,16.473167212367116,0.4347698986530304,0.04450426623225212,9.827702522277832,-7.756493687338661e-06,-0.000219872803427279,2.063683859887533e-05,-14.46700382232666,57.64515686035156,0.0016671371413394809,-0.5983965992927551,-0.030380679294466972,9.104501077672467e-05
749,16.4831672121436,4.436234474182129,-0.07371388375759125,9.789704322814941,-8.337420695170294e-06,0.0003237781347706914,2.7313823011354543e-05,-14.398085594177246,57.644432067871094,0.0016660308465361595,-0.5983809232711792,-0.03056509420275688,8.625966438557953e-05
750,16.49316721192008,0.4343617558479309,0.08450030535459518,9.828082084655762,-7.036662282189354e-06,-0.0002284824731759727,3.47801687894389e-05,-14.329124450683594,57.643714904785156,0.001666755648329854,-0.5983610153198242,-0.03043532185256481,8.221733151003718e-05
751,16.503167211696564,4.41582727432251,-0.03392912819981575,9.789713859558105,-7.960896255099215e-06,0.00031298547401092947,2.702430538192857e-05,-14.259722709655762,57.64299011230469,0.0016656875377520919,-0.5983456373214722,-0.03061973676085472,7.764786278130487e-05
752,16.513167211473046,0.43478676676750183,0.044500868767499924,9.828463554382324,-6.66426012685406e-06,-0.00023568153847008944,1.4769758308830205e-05,-14.190278053283691,57.642269134521484,0.001666488591581583,-0.5983370542526245,-0.030476301908493042,7.382499461527914e-05
753,16.52316721124953,4.405833721160889,-0.034036584198474884,9.789334297180176,-5.419388799055014e-06,0.00030246321693994105,2.717191819101572e-05,-14.120392799377441,57.64154052734375,0.0016654586652293801,-0.5983216166496277,-0.03065388649702072,7.071159052429721e-05
754,16.53316721102601,0.4452119469642639,0.004606221802532673,9.82807445526123,-4.615684702002909e-06,-0.00024241258506663144,3.379719055374153e-05,-14.050463676452637,57.64081573486328,0.0016662597190588713,-0.5983022451400757,-0.03052411414682865,6.805664452258497e-05
755,16.543167210802494,4.405422210693359,0.0059575713239610195,9.789713859558105,-2.7908768061024603e-06,0.0002933147188741714,3.276077768532559e-05,-13.980094909667969,57.64008331298828,0.0016652678605169058,-0.5982834100723267,-0.03068803809583187,6.644753011642024e-05
756,16.553167210578977,0.42605069279670715,-0.07559917867183685,9.828084945678711,-3.9862147787061986e-06,-0.0002497961977496743,2.699621836654842e-05,-13.909683227539062,57.63934326171875,0.0016661070985719562,-0.5982678532600403,-0.03053777478635311,6.415533425752074e-05
757,16.56316721035546,4.394589424133301,0.08584551513195038,9.789718627929688,-2.0534694158413913e-06,0.0002847569703590125,3.377045868546702e-05,-13.838833808898926,57.638607025146484,0.00166515342425555,-0.5982484817504883,-0.03070169873535633,6.296843639574945e-05
758,16.573167210131942,0.4356357455253601,-0.035497721284627914,9.827695846557617,-2.795875161609729e-06,-0.0002549909695517272,3.53869327227585e-05,-13.767940521240234,57.63786315917969,0.0016659926623106003,-0.5982283353805542,-0.030558263882994652,6.135569128673524e-05
759,16.583167209908424,4.385427951812744,0.005741648841649294,9.790103912353516,-3.986934643762652e-06,0.000277207262115553,3.6653342249337584e-05,-13.696609497070312,57.637123107910156,0.0016650771722197533,-0.5982071757316589,-0.03071535937488079,5.906009755562991e-05
760,16.593167209684907,0.45563581585884094,-0.035289883613586426,9.827688217163086,-2.8840570394095266e-06,-0.00026010681176558137,3.007949453603942e-05,-13.62523365020752,57.636375427246094,0.0016659545945003629,-0.5981900095939636,-0.03056509420275688,5.7398479839321226e-05
761,16.60316720946139,4.34501314163208,0.04531846567988396,9.789361953735352,-2.936568989753141e-06,0.0002706179511733353,3.4515302104409784e-05,-13.553423881530762,57.63562774658203,0.0016650009201839566,-0.598170280456543,-0.03072218969464302,5.570534631260671e-05
762,16.613167209237872,0.4556371867656708,-0.035290688276290894,9.828067779541016,-2.0552167825371725e-06,-0.00026416429318487644,3.367475437698886e-05,-13.481568336486816,57.6348762512207,0.0016658782260492444,-0.5981509685516357,-0.03057192452251911,5.451748802443035e-05
763,16.623167209014355,4.355012893676758,0.04541957005858421,9.790120124816895,-1.911980916702305e-06,0.00026305686333216727,3.306417784187943e-05,-13.40927791595459,57.634124755859375,0.0016650009201839566,-0.5981319546699524,-0.03072218969464302,5.3411858971230686e-05
764,16.633167208790837,0.46563521027565,-0.035187117755413055,9.827681541442871,-3.5802609090751503e-06,-0.0002683941274881363,2.817965105350595e-05,-13.336942672729492,57.63336944580078,0.0016659164102748036,-0.598115861415863,-0.03056509420275688,5.135187893756665e-05
765,16.64316720856732,4.325430393218994,0.0051054880023002625,9.789372444152832,-1.6086934238046524e-06,0.0002576927363406867,3.117963206022978e-05,-13.264174461364746,57.632606506347656,0.0016650009201839566,-0.5980977416038513,-0.03071535937488079,5.0420603656675667e-05
766,16.653167208343802,0.46563422679901123,-0.03518781438469887,9.82806396484375,-2.580740556368255e-06,-0.00027172249974682927,3.0103925382718444e-05,-13.191360473632812,57.63184356689453,0.0016659164102748036,-0.598080575466156,-0.030558263882994652,4.893273944617249e-05
767,16.663167208120285,4.325010776519775,0.045100126415491104,9.790136337280273,-2.6169752800342394e-06,0.0002514770021662116,3.1725128792459145e-05,-13.118114471435547,57.63107681274414,0.0016650771722197533,-0.5980623960494995,-0.03070169873535633,4.742358942166902e-05
768,16.673167207896768,0.4656338095664978,-0.03518844395875931,9.827301979064941,-9.282533142140892e-07,-0.0002751283464021981,2.8911317713209428e-05,-13.044822692871094,57.63031005859375,0.0016659926623106003,-0.5980458855628967,-0.030558263882994652,4.6882894821465015e-05
769,16.68316720767325,4.305427551269531,0.004890610929578543,9.79053020477295,-2.094399633278954e-06,0.0002461216936353594,3.2508454751223326e-05,-12.971100807189941,57.629539489746094,0.0016651916084811091,-0.598027229309082,-0.03068803809583187,4.567293217405677e-05
770,16.693167207449733,0.47520992159843445,0.00491297896951437,9.827295303344727,-2.7343469355400885e-06,-0.00027689742273651063,3.0201723348000087e-05,-12.897331237792969,57.62876892089844,0.0016661452827975154,-0.5980099439620972,-0.03052411414682865,4.409706889418885e-05
771,16.703167207226215,4.295424461364746,0.004783095326274633,9.789774894714355,-2.41640918829944e-06,0.00024140770256053656,3.1251711334334686e-05,-12.82313346862793,57.62799072265625,0.001665306044742465,-0.5979920625686646,-0.03066754713654518,4.270300269126892e-05
772,16.713167207002698,0.48520606756210327,0.005016692448407412,9.82767105102539,-1.2775393543051905e-06,-0.00027965803747065365,2.955969284812454e-05,-12.74888801574707,57.62721633911133,0.0016662597190588713,-0.5979751944541931,-0.03050362318754196,4.196198278805241e-05
773,16.72316720677918,4.275423049926758,0.004571403842419386,9.790166854858398,-1.8115632656190428e-06,0.00023721673642285168,3.2820982596604154e-05,-12.674214363098145,57.626434326171875,0.0016654586652293801,-0.5979564189910889,-0.03065388649702072,4.091397931915708e-05
774,16.733167206555663,0.47520172595977783,0.004911754280328751,9.827296257019043,-9.486038266004471e-07,-0.0002811891899909824,3.061189272557385e-05,-12.599493980407715,57.62565231323242,0.0016664123395457864,-0.5979387164115906,-0.030476301908493042,4.036111567984335e-05
775,16.743167206332146,4.275834560394287,-0.03542923927307129,9.790169715881348,-1.7978001665142074e-07,0.00023219217837322503,3.271274545113556e-05,-12.524348258972168,57.6248664855957,0.0016656112857162952,-0.5979200601577759,-0.03061973676085472,4.024808731628582e-05
776,16.75316720610863,0.47478199005126953,0.04490910470485687,9.827296257019043,-1.5647334521418088e-06,-0.0002838018408510834,3.0238918043323793e-05,-12.449153900146484,57.624080657958984,0.0016665649600327015,-0.5979027152061462,-0.030462641268968582,3.934236156055704e-05
777,16.76316720588511,4.2458319664001465,-0.03574526682496071,9.790569305419922,-1.778499836291303e-06,0.00022865142091177404,3.1843337637837976e-05,-12.373536109924316,57.623291015625,0.0016658019740134478,-0.5978845357894897,-0.0305924154818058,3.831361391348764e-05
778,16.773167205661593,0.49519219994544983,0.005119597539305687,9.826904296875,8.86025532054191e-07,-0.0002849154989235103,2.9152990464353934e-05,-12.297868728637695,57.62249755859375,0.001666755648329854,-0.5978677868843079,-0.030428491532802582,3.88123735319823e-05
779,16.783167205438076,4.25540828704834,0.004354431293904781,9.790566444396973,9.108849496897164e-08,0.0002253295388072729,3.10803297907114e-05,-12.221776962280273,57.6217041015625,0.0016659926623106003,-0.59784996509552,-0.030558263882994652,3.8855090679135174e-05
780,16.79316720521456,0.48518478870391846,0.005014781374484301,9.827293395996094,-1.9565441107260995e-06,-0.00028606082196347415,2.8076616217731498e-05,-12.145636558532715,57.620906829833984,0.0016669845208525658,-0.5978338122367859,-0.030380679294466972,3.7725512811448425e-05
781,16.80316720499104,4.225401401519775,0.004046753980219364,9.790203094482422,-5.366005643736571e-05,0.00022158272622618824,-0.00028370346990413964,-12.069074630737305,57.6201057434082,0.001666221534833312,-0.5979963541030884,-0.03051045350730419,7.066926173138199e-06
782,16.813167204767524,0.5060126781463623,-0.07478007674217224,9.826518058776855,-7.47789308661595e-05,-0.000286901748040691,-0.00047809520037844777,-11.992463111877441,57.619300842285156,0.0016671371413394809,-0.5982702374458313,-0.030346529558300972,-3.0517576306010596e-05
783,16.823167204544006,4.204977989196777,0.04386432096362114,9.79098129272461,-5.720159242628142e-05,0.00021902650769334286,-0.0004771235689986497,-11.915431022644043,57.61848831176758,0.0016663741553202271,-0.5985437631607056,-0.030469471588730812,-6.103516352595761e-05
