frame,timestamp,x,y,z,qw,qx,qy,qz,v_x (m/s),v_y (m/s),v_z (m/s),w_x (rad/s),w_y (rad/s),w_z (rad/s),acc x (m/s^2),acc y (m/s^2),acc z (m/s^2),roll,pitch,yaw
123,4262413877,-23.800546646118164,61.24238586425781,0.09412002563476562,0.9999864410163584,0.0,-0.0,-0.005207473805720072,0.0,-0.0,-0.2939999997615814,0.0,-0.0,-0.0,0.0,-0.0,-9.800000190734863,0.0,-0.0,-0.01041499468373021
124,4272413877,-23.800546646118164,61.24238586425781,0.0902000442147255,0.9999864410163584,0.0,-0.0,-0.005207473805720072,0.0,-0.0,-0.3919999897480011,0.0,-0.0,-0.0,0.0,-0.0,-9.799999237060547,0.0,-0.0,-0.01041499468373021
125,4282413877,-23.800546646118164,61.24238586425781,0.0853000208735466,0.9999864410163584,0.0,-0.0,-0.005207473805720072,0.0,-0.0,-0.4899999797344208,0.0,-0.0,-0.0,0.0,-0.0,-9.799999237060547,0.0,-0.0,-0.01041499468373021
126,4292413877,-23.800546646118164,61.24238586425781,0.07942001521587372,0.9999864410163584,0.0,-0.0,-0.005207473805720072,0.0,-0.0,-0.5879999995231628,0.0,-0.0,-0.0,0.0,-0.0,-9.800002098083496,0.0,-0.0,-0.01041499468373021
127,4302413876,-23.800546646118164,61.24238586425781,0.07292083650827408,0.9999864410163584,0.0,-0.0,-0.005207473805720072,0.0,-0.0,-0.6499363780021667,-0.00044292787788435817,0.00018683887901715934,1.7491216808274146e-12,0.0,-0.0,-6.193637847900391,0.0,-0.0,-0.01041499468373021
128,4312413876,-23.800546646118164,61.24238586425781,0.06700301915407181,0.9999864410163584,0.0,-0.0,-0.005207473805720072,-1.0590547105948644e-07,-2.2280735265667317e-06,-0.591778039932251,-0.00021339982049539685,0.00013214298815000802,7.050624528659455e-09,-1.0590547390165739e-05,-0.00022280735720414668,5.815834045410156,0.0,-0.0,-0.01041499468373021
129,4322413876,-23.800546646118164,61.24238586425781,0.06157264485955238,0.9999864410163584,0.0,-0.0,-0.005207473805720072,-8.158038866667994e-08,-1.6871613297553267e-06,-0.5430380702018738,-0.00013878810568712652,9.76341325440444e-05,-6.086086301593241e-09,2.4325081540155225e-06,5.40912187716458e-05,4.873996734619141,0.0,-0.0,-0.01041499468373021
130,4332413876,-23.800546646118164,61.24238586425781,0.05658992752432823,0.9999864410163584,0.0,-0.0,-0.005207473805720072,-8.267785034377084e-08,-1.2283089745324105e-06,-0.49827253818511963,-0.00014844961697235703,0.00010240588017040864,-7.208138530501174e-10,-1.0974616770909051e-07,4.5885237341281027e-05,4.476552963256836,0.0,-0.0,-0.01041499468373021
131,4342413875,-23.800546646118164,61.24238586425781,0.05201831832528114,0.9999864410163584,0.0,-0.0,-0.005207473805720072,-5.606609221331382e-08,-1.3413051647148677e-06,-0.45716163516044617,-0.0001549194857943803,6.57591299386695e-05,-4.224406158215288e-09,2.661175813045702e-06,-1.129961856349837e-05,4.111090183258057,0.0,-0.0,-0.01041499468373021
132,4352413875,-23.800546646118164,61.24238586425781,0.04782421141862869,0.9999864410163584,0.0,-0.0,-0.005207473805720072,-7.199930962542567e-08,-1.0381281754234806e-06,-0.4194090962409973,-0.00012380846601445228,8.779278869042173e-05,-6.49548748121731e-11,-1.593321712789475e-06,3.0317698474391364e-05,3.7752537727355957,0.0,-0.0,-0.01041499468373021
133,4362413875,-23.800546646118164,61.24238586425781,0.04397674277424812,0.9999864410163584,0.0,-0.0,-0.005207473805720072,-3.928982295064998e-08,-7.898712510723271e-07,-0.38474470376968384,-4.078710844623856e-05,4.8532107030041516e-05,-7.156164993915581e-09,3.2709485822124407e-06,2.4825692889862694e-05,3.4664392471313477,0.0,-0.0,-0.01041499468373021
134,4372413875,-23.800546646118164,61.24238586425781,0.04044754058122635,0.9999864410163584,0.0,-0.0,-0.005207473805720072,-1.3921900965385703e-08,-1.019425326376222e-06,-0.35291948914527893,-4.36855734733399e-05,8.721744961803779e-06,-6.419996756434898e-10,2.536792180762859e-06,-2.2955407985136844e-05,3.182521343231201,0.0,-0.0,-0.01041499468373021
135,4382413875,-23.800546646118164,61.24238586425781,0.03721050173044205,0.9999864410163584,0.0,-0.0,-0.005207473805720072,-2.742442717362792e-08,-5.930476163484855e-07,-0.3237023949623108,-8.650344534544274e-05,2.9845999961253256e-05,-2.0955210899842314e-09,-1.350252659904072e-06,4.263777009327896e-05,2.9217095375061035,0.0,-0.0,-0.01041499468373021
136,4392413874,-23.800546646118164,61.24238586425781,0.034241676330566406,0.9999864410163584,0.0,-0.0,-0.005207473805720072,-2.6631786553821257e-08,-6.03267949372821e-07,-0.29688146710395813,-8.791442814981565e-05,3.0129087463137694e-05,9.852761939654897e-10,7.926406198066616e-08,-1.022033302433556e-06,2.6820926666259766,0.0,-0.0,-0.01041499468373021
137,4402413874,-23.800546646118164,61.24238586425781,0.031519051641225815,0.9999864410163584,0.0,-0.0,-0.005207473805720072,-7.808318436275385e-09,-2.375480931959828e-07,-0.2722642123699188,-5.342355871107429e-05,9.881189726002049e-06,-6.667914664859609e-09,1.8823467371476e-06,3.657198612927459e-05,2.4617254734039307,0.0,-0.0,-0.01041499468373021
138,4412413874,-23.800546646118164,61.24238586425781,0.029022330418229103,0.9999864410163584,0.0,-0.0,-0.005207473805720072,-2.56884362670462e-08,-3.9377113125738106e-07,-0.2496708184480667,-1.3951638493381324e-06,2.9424158128676936e-05,2.2256836373912847e-09,-1.7880119003166328e-06,-1.5622303180862218e-05,2.2593393325805664,0.0,-0.0,-0.01041499468373021
139,4422413874,-23.800546646118164,61.24238586425781,0.026732977479696274,0.9999864410163584,0.0,-0.0,-0.005207473805720072,8.175924826048231e-09,-1.4974915529819555e-07,-0.22893542051315308,-2.6365310077380855e-06,-1.0716315046011005e-05,-5.445114137359042e-09,3.3864359920698917e-06,2.440219759591855e-05,2.0735397338867188,0.0,-0.0,-0.01041499468373021
140,4432413873,-23.800546646118164,61.24238586425781,0.024633903056383133,0.9999864410163584,0.0,-0.0,-0.005207473805720072,7.048307715251667e-09,-1.260954576309814e-07,-0.2099071443080902,-1.6482401861139806e-06,-1.1807245755335316e-05,-1.1950742617727883e-09,-1.1276171107965638e-07,2.3653697098779958e-06,1.9028276205062866,0.0,-0.0,-0.01041499468373021
141,4442413873,-23.800546646118164,61.24238586425781,0.022709425538778305,0.9999864410163584,0.0,-0.0,-0.005207473805720072,-2.4151528776883424e-08,-2.218306320855845e-07,-0.19244834780693054,1.028715587381157e-06,2.8107784601161256e-05,5.947991432719846e-09,-3.1199836030282313e-06,-9.573517672833987e-06,1.7458796501159668,0.0,-0.0,-0.01041499468373021
142,4452413873,-23.800546646118164,61.24238586425781,0.020945128053426743,0.9999864410163584,0.0,-0.0,-0.005207473805720072,-4.351480509257044e-09,-1.630790613660338e-08,-0.17642852663993835,-4.970434383722022e-05,8.070443982433062e-06,-2.6515574180763224e-09,1.9800047539320076e-06,2.055227196251508e-05,1.6019821166992188,0.0,-0.0,-0.01041499468373021
143,4462413873,-23.800546646118164,61.24238586425781,0.019327811896800995,0.9999864410163584,0.0,-0.0,-0.005207473805720072,-1.9918319438261278e-08,-3.462357511807568e-08,-0.16173233091831207,3.190813004039228e-06,2.6527579393587075e-05,3.413084814773981e-10,-1.5566838555969298e-06,-1.831566919463512e-06,1.4696195125579834,0.0,-0.0,-0.01041499468373021
144,4472413873,-23.800546646118164,61.24238586425781,0.017845306545495987,0.9999864410163584,0.0,-0.0,-0.005207473805720072,-2.0696779845508217e-09,7.225104781127811e-08,-0.14825032651424408,4.1894516471074894e-05,5.220606453804066e-06,-4.949108234342248e-09,1.7848641391537967e-06,1.068746223609196e-05,1.3482004404067993,0.0,-0.0,-0.01041499468373021
145,4482413872,-23.800546646118164,61.24238586425781,0.016486473381519318,0.9999864410163584,0.0,-0.0,-0.005207473805720072,-5.223843579926779e-09,-2.144813038285065e-07,-0.1358819454908371,4.4866144889965653e-05,3.952280621888349e-06,3.288766592390857e-09,-3.154165710839152e-07,-2.867323564714752e-05,1.2368381023406982,0.0,-0.0,-0.01041499468373021
146,4492413872,-23.800546646118164,61.24238586425781,0.015241088345646858,0.9999864410163584,0.0,-0.0,-0.005207473805720072,-2.805967902475004e-09,-3.6460210850464136e-08,-0.1245381310582161,-3.090599420829676e-05,3.867647592414869e-06,-8.19705248122915e-10,2.4178757485060487e-07,1.7802109141484834e-05,1.1343814134597778,0.0,-0.0,-0.01041499468373021
147,4502413872,-23.800546646118164,61.24238586425781,0.014099731110036373,0.9999864410163584,0.0,-0.0,-0.005207473805720072,2.811366783816993e-08,-8.61013802477828e-08,-0.1141342893242836,-4.345309207565151e-05,-3.7802841688971967e-05,-5.0182231703388425e-09,3.0919636628823355e-06,-4.964117124472978e-06,1.0403841733932495,0.0,-0.0,-0.01041499468373021
148,4512413872,-23.800546646118164,61.24238586425781,0.013053817674517632,0.9999864410163584,0.0,-0.0,-0.005207473805720072,-1.7622614478796095e-08,-4.729375557843696e-09,-0.10459193587303162,8.724347026145551e-06,2.056898665614426e-05,3.288461281059085e-09,-4.573628302750876e-06,8.137200893543195e-06,0.954235315322876,0.0,-0.0,-0.01041499468373021
149,4522413871,-23.800546646118164,61.24238586425781,0.01209537498652935,0.9999864410163584,0.0,-0.0,-0.005207473805720072,3.4984395935744317e-10,-6.019207887675293e-08,-0.09584266692399979,-4.066432666149922e-05,4.942025952914264e-07,1.0829820373814414e-09,1.7972458863368956e-06,-5.546270131162601e-06,0.8749269247055054,0.0,-0.0,-0.01041499468373021
150,4532413871,-23.800546646118164,61.24238586425781,0.011217193678021431,0.9999864410163584,0.0,-0.0,-0.005207473805720072,-1.3290661016185368e-08,8.488692060382164e-08,-0.08781852573156357,1.1299527614028193e-05,1.8743734472081997e-05,4.283133570037734e-10,-1.3640504903378314e-06,1.4507900232274551e-05,0.8024141192436218,0.0,-0.0,-0.01041499468373021
151,4542413871,-23.800546646118164,61.24238586425781,0.010412558913230896,0.9999864410163584,0.0,-0.0,-0.005207473805720072,3.089368050268604e-08,-1.955240946927006e-07,-0.08046261966228485,5.101487477077171e-05,-4.29420470027253e-05,-2.5908097889271176e-09,4.418433945829747e-06,-2.804110226861667e-05,0.7355905771255493,0.0,-0.0,-0.01041499468373021
152,4552413871,-23.800546646118164,61.24238586425781,0.009675368666648865,0.9999864410163584,0.0,-0.0,-0.005207473805720072,4.112734874883728e-10,8.464802192520438e-09,-0.07371748983860016,-3.7565358070423827e-05,-2.9360910502873594e-06,2.544129573678333e-09,-3.048240841962979e-06,2.039888931903988e-05,0.6745129823684692,0.0,-0.0,-0.01041499468373021
153,4562413871,-23.800546646118164,61.24238586425781,0.009000015445053577,0.9999864410163584,0.0,-0.0,-0.005207473805720072,-1.2759691969677078e-08,4.265388753310617e-08,-0.06753383576869965,1.4818649106018711e-05,1.7068463421310298e-05,1.024520190906486e-10,-1.317096575803589e-06,3.4189085909019923e-06,0.6183654069900513,0.0,-0.0,-0.01041499468373021
154,4572413870,-23.800546646118164,61.24238586425781,0.008381347171962261,0.9999864410163584,0.0,-0.0,-0.005207473805720072,1.7315555211894207e-08,-8.041902788136213e-08,-0.06186594441533089,1.6816589777590707e-05,-2.309964293090161e-05,-7.889142672468097e-10,3.007524810527684e-06,-1.2307290489843581e-05,0.5667891502380371,0.0,-0.0,-0.01041499468373021
155,4582413870,-23.800546646118164,61.24238586425781,0.007814674638211727,0.9999864410163584,0.0,-0.0,-0.005207473805720072,-1.2136915472638066e-08,1.0246388626455882e-07,-0.056669194251298904,1.772876021277625e-05,1.5802183042978868e-05,2.4895774330957465e-09,-2.945247160823783e-06,1.8288292267243378e-05,0.5196750164031982,0.0,-0.0,-0.01041499468373021
156,4592413870,-23.800546646118164,61.24238586425781,0.0072956085205078125,0.9999864410163584,0.0,-0.0,-0.005207473805720072,1.9459891476003577e-08,-5.2499540714734394e-08,-0.051906976848840714,1.982775575015694e-05,-2.5714720322866924e-05,-8.527512029843365e-10,3.1596805456501897e-06,-1.5496343621634878e-05,0.4762217402458191,0.0,-0.0,-0.01041499468373021
157,4602413870,-23.800546646118164,61.24238586425781,0.006820182781666517,0.9999864410163584,0.0,-0.0,-0.005207473805720072,2.312275482196924e-09,-5.879631359562154e-08,-0.04754270613193512,-3.003523488587234e-05,-5.289843102218583e-06,3.787526736687141e-09,-1.714761651783192e-06,-6.296772880887147e-07,0.4364270567893982,0.0,-0.0,-0.01041499468373021
158,4612413869,-23.800546646118164,61.24238586425781,0.006384773179888725,0.9999864410163584,0.0,-0.0,-0.005207473805720072,-1.229577684114247e-08,-1.0374635905918694e-07,-0.04354188218712807,2.2062673451728188e-05,1.4229416592570487e-05,2.530049281190827e-09,-1.4608052651965409e-06,-4.495004759519361e-06,0.40008240938186646,0.0,-0.0,-0.01041499468373021
159,4622413869,-23.800546646118164,61.24238586425781,0.005986022762954235,0.9999864410163584,0.0,-0.0,-0.005207473805720072,1.8887856612082032e-08,-1.48240914654707e-07,-0.03987563028931618,2.2102214643382467e-05,-2.638130717969034e-05,-1.9667341089046886e-09,3.1183631108433474e-06,-4.449455445865169e-06,0.36662518978118896,0.0,-0.0,-0.01041499468373021
160,4632413869,-23.800546646118164,61.24238586425781,0.00562084186822176,0.9999864410163584,0.0,-0.0,-0.005207473805720072,-1.1441959379965283e-08,3.107043156092004e-08,-0.03651659935712814,2.2177360733621754e-05,1.3633673916046973e-05,1.787722858637153e-09,-3.0329815672303084e-06,1.793113369785715e-05,0.3359031081199646,0.0,-0.0,-0.01041499468373021
161,4642413869,-23.800546646118164,61.24238586425781,0.005286483559757471,0.9999864410163584,0.0,-0.0,-0.005207473805720072,2.5255906255239324e-09,-3.085698949689686e-07,-0.03343768045306206,-2.6879730285145342e-05,-6.446559837058885e-06,2.742604809924387e-09,1.3967550103188842e-06,-3.396403189981356e-05,0.3078919053077698,0.0,-0.0,-0.01041499468373021
162,4652413869,-23.800546646118164,61.24238586425781,0.004980315919965506,0.9999864410163584,0.0,-0.0,-0.005207473805720072,3.550196359114466e-09,-1.183860547371296e-07,-0.030616359785199165,-2.785989454423543e-05,-6.493499768112088e-06,8.181355592995487e-11,1.0246057513541018e-07,1.9018383682123385e-05,0.2821320593357086,0.0,-0.0,-0.01041499468373021
163,4662413868,-23.800546646118164,61.24238586425781,0.004699973855167627,0.9999864410163584,0.0,-0.0,-0.005207473805720072,-1.0506440162316721e-08,-1.0791528559650487e-08,-0.028032369911670685,2.3066351786837913e-05,1.3088181731291115e-05,-7.990729744555836e-10,-1.4056636246095877e-06,1.0759452379716095e-05,0.25839897990226746,0.0,-0.0,-0.01041499468373021
164,4672413868,-23.800546646118164,61.24238586425781,0.004443320911377668,0.9999864410163584,0.0,-0.0,-0.005207473805720072,4.4725116943311605e-09,-1.2731365472973266e-07,-0.025666169822216034,-2.7105166736873798e-05,-6.525020580738783e-06,-7.373797406007299e-11,1.4978951412558672e-06,-1.1652212378976401e-05,0.2366200089454651,0.0,-0.0,-0.01041499468373021
165,4682413868,-23.800546646118164,61.24238586425781,0.004208335652947426,0.9999864410163584,0.0,-0.0,-0.005207473805720072,-1.1368294750013774e-08,-9.374949883067529e-08,-0.023497648537158966,2.4431723431916907e-05,1.3103793207847048e-05,2.3193220677342197e-09,-1.5840805644984357e-06,3.3564156183274463e-06,0.2168521285057068,0.0,-0.0,-0.01041499468373021
166,4692413868,-23.800546646118164,61.24238586425781,0.003993224818259478,0.9999864410163584,0.0,-0.0,-0.005207473805720072,-1.0618409262974637e-08,-1.295044000926282e-07,-0.021510815247893333,2.4926810510805808e-05,1.2939367479702923e-05,1.1982747016858752e-09,7.498854870391369e-08,-3.5754901546170004e-06,0.19868332147598267,0.0,-0.0,-0.01041499468373021
167,4702413867,-23.800546646118164,61.24238586425781,0.0037963103968650103,0.9999864410163584,0.0,-0.0,-0.005207473805720072,2.3107542546085824e-09,-4.047844299748249e-07,-0.019691186025738716,-2.5699955585878342e-05,-7.481903594452888e-06,1.8472470220132209e-09,1.2929162949149031e-06,-2.7528003556653857e-05,0.18196292221546173,0.0,-0.0,-0.01041499468373021
168,4712413867,-23.800546646118164,61.24238586425781,0.003616065951064229,0.9999864410163584,0.0,-0.0,-0.005207473805720072,1.967792861989892e-08,-1.250353847126462e-07,-0.018023833632469177,-7.895445014582947e-05,-2.7530746592674404e-05,-1.975565044887162e-09,1.7367174223181792e-06,2.7974903787253425e-05,0.1667352318763733,0.0,-0.0,-0.01041499468373021
169,4722413867,-23.800546646118164,61.24238586425781,0.0034510802943259478,0.9999864410163584,0.0,-0.0,-0.005207473805720072,-1.090519585744687e-08,-6.484024339670214e-08,-0.016497468575835228,2.2661317416350357e-05,1.1416423149057664e-05,-4.6340678690193204e-12,-3.058312358916737e-06,6.019514330546372e-06,0.15263649821281433,0.0,-0.0,-0.01041499468373021
170,4732413867,-23.800546646118164,61.24238586425781,0.00330009451135993,0.9999864410163584,0.0,-0.0,-0.005207473805720072,-6.7100893730298594e-09,1.3781003360691102e-07,-0.015099982731044292,2.345065149711445e-05,1.1306094165774994e-05,-1.1568010993556754e-09,4.195106555471284e-07,2.0265028069843538e-05,0.13974858820438385,0.0,-0.0,-0.01041499468373021
171,4742413867,-23.800546646118164,61.24238586425781,0.0031618881039321423,0.9999864410163584,0.0,-0.0,-0.005207473805720072,-6.174679434423069e-09,1.7123733186963364e-07,-0.013819627463817596,2.5315159291494638e-05,1.110223001887789e-05,-2.23753196526566e-10,5.354099386067901e-08,3.3427297694288427e-06,0.1280355304479599,0.0,-0.0,-0.01041499468373021
172,4752413866,-23.800546646118164,61.24238586425781,0.003035430796444416,0.9999864410163584,0.0,-0.0,-0.005207473805720072,-7.136435442589573e-09,9.363886022129009e-08,-0.0126472944393754,2.7219664843869396e-05,1.1275331416982226e-05,-4.2323558546719653e-10,-9.617559726393665e-08,-7.759846994304098e-06,0.11723330616950989,0.0,-0.0,-0.01041499468373021
173,4762413866,-23.800546646118164,61.24238586425781,0.002919693011790514,0.9999864410163584,0.0,-0.0,-0.005207473805720072,2.2037642821715053e-08,-8.516008165315725e-08,-0.011573800817131996,-7.379300950560719e-05,-2.8866259526694193e-05,-1.3744416715866237e-09,2.917407755376189e-06,-1.7879894585348666e-05,0.10734936594963074,0.0,-0.0,-0.01041499468373021
174,4772413866,-23.800546646118164,61.24238586425781,0.002813796978443861,0.9999864410163584,0.0,-0.0,-0.005207473805720072,6.8194161428891675e-09,6.57383694147029e-08,-0.0105905057862401,-2.328393020434305e-05,-9.878068340185564e-06,-1.1679123224084265e-09,-1.521822696304298e-06,1.5089844055182766e-05,0.09832949936389923,0.0,-0.0,-0.01041499468373021
175,4782413866,-23.800546646118164,61.24238586425781,0.0027168653905391693,0.9999864410163584,0.0,-0.0,-0.005207473805720072,-6.375835859273593e-09,1.3455378677917906e-07,-0.00969135295599699,2.8521122658276e-05,9.293127732235007e-06,1.1812579560344094e-11,-1.3195251540309982e-06,6.881541594339069e-06,0.08991528302431107,0.0,-0.0,-0.01041499468373021
176,4792413865,-23.800546646118164,61.24238586425781,0.002628173679113388,0.9999864410163584,0.0,-0.0,-0.005207473805720072,9.838940329132129e-09,1.074101376730141e-07,-0.008867616765201092,-2.1532559912884608e-05,-1.0725472748163156e-05,-2.3862933851148682e-09,1.6214777360801236e-06,-2.7143648821947863e-06,0.08237361907958984,0.0,-0.0,-0.01041499468373021
177,4802413865,-23.800546646118164,61.24238586425781,0.002547035226598382,0.9999864410163584,0.0,-0.0,-0.005207473805720072,-7.152294756451738e-09,-2.4430823586385486e-08,-0.008113260380923748,3.122278212686069e-05,8.110243470582645e-06,2.938156606901998e-09,-1.6991234588203952e-06,-1.3184096133045387e-05,0.07543563842773438,0.0,-0.0,-0.01041499468373021
178,4812413865,-23.800546646118164,61.24238586425781,0.0024728011339902878,0.9999864410163584,0.0,-0.0,-0.005207473805720072,1.0102252367971687e-08,1.0144626116925792e-07,-0.007422056049108505,-2.0024566765641794e-05,-1.125056587625295e-05,-2.976415336419791e-09,1.7254545809919364e-06,1.2587707715283614e-05,0.06912043690681458,0.0,-0.0,-0.01041499468373021
179,4822413865,-23.800546646118164,61.24238586425781,0.0024048995692282915,0.9999864410163584,0.0,-0.0,-0.005207473805720072,-5.651858092647899e-09,1.6131266988850257e-07,-0.006789665203541517,3.213765739928931e-05,8.643135515740141e-06,2.768943130337931e-10,-1.5754110336274607e-06,5.986640644550789e-06,0.06323908269405365,0.0,-0.0,-0.01041499468373021
180,4832413865,-23.800546646118164,61.24238586425781,0.0023427961859852076,0.9999864410163584,0.0,-0.0,-0.005207473805720072,9.284301327738831e-09,5.0306894650020695e-08,-0.006211747881025076,-1.7060167010640725e-05,-1.087006057787221e-05,6.353269021985852e-10,1.4936158549971879e-06,-1.1100577467004769e-05,0.057791732251644135,0.0,-0.0,-0.01041499468373021
181,4842413864,-23.800546646118164,61.24238586425781,0.0022859573364257812,0.9999864410163584,0.0,-0.0,-0.005207473805720072,-5.893921350974551e-09,1.7149874054211978e-07,-0.005683002527803183,3.4569289709907025e-05,9.109146958508063e-06,6.192380636038664e-11,-1.5178222838585498e-06,1.2119184248149395e-05,0.05287453532218933,0.0,-0.0,-0.01041499468373021
182,4852413864,-23.800546646118164,61.24238586425781,0.002233962994068861,0.9999864410163584,0.0,-0.0,-0.005207473805720072,8.340061974365653e-09,-2.684265609786962e-08,-0.00519810663536191,-1.4848902537778486e-05,-1.0672411917767022e-05,2.7311580774735944e-10,1.423398316546809e-06,-1.9834140402963385e-05,0.048489589244127274,0.0,-0.0,-0.01041499468373021
183,4862413864,-23.800546646118164,61.24238586425781,0.002186431782320142,0.9999864410163584,0.0,-0.0,-0.005207473805720072,7.684579195199603e-09,-3.470010501160914e-09,-0.004754247609525919,-1.4572796317224856e-05,-1.0811135325639043e-05,7.239049359952787e-10,-6.5548277916605e-08,2.3372645046038087e-06,0.04438590258359909,0.0,-0.0,-0.01041499468373021
184,4872413864,-23.800546646118164,61.24238586425781,0.002142944373190403,0.9999864410163584,0.0,-0.0,-0.005207473805720072,7.119980161007788e-09,-9.151979440957803e-08,-0.004348478280007839,-1.4412884411285631e-05,-1.1325521882099565e-05,3.6888628263120893e-10,-5.64599034191815e-08,-8.80497827893123e-06,0.040576934814453125,0.0,-0.0,-0.01041499468373021
185,4882413863,-23.800546646118164,61.24238586425781,0.0021031571086496115,0.9999864410163584,0.0,-0.0,-0.005207473805720072,8.828878073074975e-09,7.482360331323434e-08,-0.0039771366864442825,-1.554276423121337e-05,-1.1315763003949542e-05,-2.55232812662598e-09,1.7088979120671866e-07,1.6634339772281237e-05,0.03713415935635567,0.0,-0.0,-0.01041499468373021
186,4892413863,-23.800546646118164,61.24238586425781,0.0020668029319494963,0.9999864410163584,0.0,-0.0,-0.005207473805720072,-6.0700702242399984e-09,9.12052087187476e-08,-0.0036372279282659292,3.5965058486908674e-05,8.152957889251411e-06,-3.7237138372780976e-10,-1.4898947711117216e-06,1.6381604837079067e-06,0.033990874886512756,0.0,-0.0,-0.01041499468373021
187,4902413863,-23.800546646118164,61.24238586425781,0.0020335388835519552,0.9999864410163584,0.0,-0.0,-0.005207473805720072,-4.5591361796937235e-09,1.4700623296448612e-07,-0.0033267878461629152,3.6549565265886486e-05,8.258006346295588e-06,-1.1084645423764528e-09,1.5109340267827065e-07,5.580102424573852e-06,0.0310440082103014,0.0,-0.0,-0.01041499468373021
188,4912413863,-23.800546646118164,61.24238586425781,0.00200309744104743,0.9999864410163584,0.0,-0.0,-0.005207473805720072,-6.144205588753948e-09,-1.771874380551708e-08,-0.003042306751012802,3.8174774090293795e-05,8.109311238513328e-06,1.8158596848394382e-09,-1.5850693557695195e-07,-1.647249882807955e-05,0.028448108583688736,0.0,-0.0,-0.01041499468373021
189,4922413863,-23.800546646118164,61.24238586425781,0.0019752883818000555,0.9999864410163584,0.0,-0.0,-0.005207473805720072,9.80099645886412e-09,6.129594254389303e-08,-0.002782354364171624,-1.2558011803776026e-05,-1.1446331882325467e-05,-9.486481045151152e-11,1.5945201994327363e-06,7.901468052295968e-06,0.02599523961544037,0.0,-0.0,-0.01041499468373021
190,4932413862,-23.800546646118164,61.24238586425781,0.0019498442998155951,0.9999864410163584,0.0,-0.0,-0.005207473805720072,-7.580552185970646e-09,-7.014786262971029e-08,-0.002544345799833536,-5.01384238305036e-05,8.852934115566313e-06,2.292744882836928e-09,-1.7381548786943313e-06,-1.3144381227903068e-05,0.023800857365131378,0.0,-0.0,-0.01041499468373021
191,4942413862,-23.800546646118164,61.24238586425781,0.0019265746232122183,0.9999864410163584,0.0,-0.0,-0.005207473805720072,1.0666253658087044e-08,1.4363125444560865e-07,-0.00232695578597486,-1.3366649000090547e-05,-1.1493474630697165e-05,-4.579368884094492e-09,1.8246804529553629e-06,2.1377911252784543e-05,0.02173900231719017,0.0,-0.0,-0.01041499468373021
192,4952413862,-23.800546646118164,61.24238586425781,0.0019052886636927724,0.9999864410163584,0.0,-0.0,-0.005207473805720072,-5.671679126351137e-09,1.14383190918943e-07,-0.0021267414558678865,3.8708407373633236e-05,7.941865987959318e-06,-9.32888419291622e-11,-1.6337932038368308e-06,-2.9248062674014363e-06,0.020021433010697365,0.0,-0.0,-0.01041499468373021
193,4962413862,-23.800546646118164,61.24238586425781,0.0018858336843550205,0.9999864410163584,0.0,-0.0,-0.005207473805720072,-5.078021558801993e-09,8.513669769172338e-08,-0.0019445704529061913,4.02313526137732e-05,8.038916348596103e-06,1.8490121656000724e-09,5.93657567549144e-08,-2.9246493795653805e-06,0.018217099830508232,0.0,-0.0,-0.01041499468373021
194,4972413861,-23.800546646118164,61.24238586425781,0.0018680571811273694,0.9999864410163584,0.0,-0.0,-0.005207473805720072,-5.850808282303888e-09,-3.753309218978984e-09,-0.0017772387946024537,4.118133074371144e-05,7.8690118243685e-06,1.5094148153593778e-09,-7.727867057383264e-08,-8.889000127965119e-06,0.016733165830373764,0.0,-0.0,-0.01041499468373021
195,4982413861,-23.800546646118164,61.24238586425781,0.0018680571811273694,0.9999864410163584,0.0,-0.0,-0.005207473805720072,0.0,-0.0,0.0,0.0,-0.0,-0.0,5.850808406648866e-07,3.753309272269689e-07,0.17772388458251953,0.0,-0.0,-0.01041499468373021
196,4992413861,-23.800546646118164,61.24238586425781,0.0018680571811273694,0.9999864410163584,0.0,-0.0,-0.005207473805720072,0.0,-0.0,0.0,0.0,-0.0,-0.0,0.0,-0.0,0.0,0.0,-0.0,-0.01041499468373021
197,5002413861,-23.800546646118164,61.24238586425781,0.0018680571811273694,0.9999864410163584,0.0,-0.0,-0.005207473805720072,0.0,-0.0,0.0,0.0,-0.0,-0.0,0.0,-0.0,0.0,0.0,-0.0,-0.01041499468373021
198,5012413860,-23.800546646118164,61.24238586425781,0.0018680571811273694,0.9999864410163584,0.0,-0.0,-0.005207473805720072,0.0,-0.0,0.0,0.0,-0.0,-0.0,0.0,-0.0,0.0,0.0,-0.0,-0.01041499468373021
199,5022413860,-23.800546646118164,61.24238586425781,0.0018680571811273694,0.9999864410163584,0.0,-0.0,-0.005207473805720072,0.0,-0.0,0.0,0.0,-0.0,-0.0,0.0,-0.0,0.0,0.0,-0.0,-0.01041499468373021
200,5032413860,-23.800546646118164,61.24238586425781,0.0018680571811273694,0.9999864410163584,0.0,-0.0,-0.005207473805720072,0.0,-0.0,0.0,0.0,-0.0,-0.0,0.0,-0.0,0.0,0.0,-0.0,-0.01041499468373021
201,5042413860,-23.800546646118164,61.24238586425781,0.0018680571811273694,0.9999864410163584,0.0,-0.0,-0.005207473805720072,0.0,-0.0,0.0,0.0,-0.0,-0.0,0.0,-0.0,0.0,0.0,-0.0,-0.01041499468373021
202,5052413860,-23.800546646118164,61.24238586425781,0.0018680571811273694,0.9999864410163584,0.0,-0.0,-0.005207473805720072,0.0,-0.0,0.0,0.0,-0.0,-0.0,0.0,-0.0,0.0,0.0,-0.0,-0.01041499468373021
203,5062413859,-23.800546646118164,61.24238586425781,0.0018680571811273694,0.9999864410163584,0.0,-0.0,-0.005207473805720072,0.0,-0.0,0.0,0.0,-0.0,-0.0,0.0,-0.0,0.0,0.0,-0.0,-0.01041499468373021
204,5072413859,-23.800546646118164,61.24238586425781,0.0018680571811273694,0.9999864410163584,0.0,-0.0,-0.005207473805720072,0.0,-0.0,0.0,0.0,-0.0,-0.0,0.0,-0.0,0.0,0.0,-0.0,-0.01041499468373021
205,5082413859,-23.800546646118164,61.24238586425781,0.0018680571811273694,0.9999864410163584,0.0,-0.0,-0.005207473805720072,0.0,-0.0,0.0,0.0,-0.0,-0.0,0.0,-0.0,0.0,0.0,-0.0,-0.01041499468373021
206,5092413859,-23.800546646118164,61.24238586425781,0.0018680571811273694,0.9999864410163584,0.0,-0.0,-0.005207473805720072,0.0,-0.0,0.0,0.0,-0.0,-0.0,0.0,-0.0,0.0,0.0,-0.0,-0.01041499468373021
207,5102413858,-23.800546646118164,61.24238586425781,0.0018680571811273694,0.9999864410163584,0.0,-0.0,-0.005207473805720072,0.0,-0.0,0.0,0.0,-0.0,-0.0,0.0,-0.0,0.0,0.0,-0.0,-0.01041499468373021
208,5112413858,-23.800546646118164,61.24238586425781,0.0018680571811273694,0.9999864410163584,0.0,-0.0,-0.005207473805720072,0.0,-0.0,0.0,0.0,-0.0,-0.0,0.0,-0.0,0.0,0.0,-0.0,-0.01041499468373021
209,5122413858,-23.800546646118164,61.24238586425781,0.0018680571811273694,0.9999864410163584,0.0,-0.0,-0.005207473805720072,0.0,-0.0,0.0,0.0,-0.0,-0.0,0.0,-0.0,0.0,0.0,-0.0,-0.01041499468373021
210,5132413858,-23.800546646118164,61.24238586425781,0.0018680571811273694,0.9999864410163584,0.0,-0.0,-0.005207473805720072,0.0,-0.0,0.0,0.0,-0.0,-0.0,0.0,-0.0,0.0,0.0,-0.0,-0.01041499468373021
211,5142413858,-23.800546646118164,61.24238586425781,0.0018680571811273694,0.9999864410163584,0.0,-0.0,-0.005207473805720072,0.0,-0.0,0.0,0.0,-0.0,-0.0,0.0,-0.0,0.0,0.0,-0.0,-0.01041499468373021
212,5152413857,-23.800546646118164,61.24238586425781,0.0018680571811273694,0.9999864410163584,0.0,-0.0,-0.005207473805720072,0.0,-0.0,0.0,0.0,-0.0,-0.0,0.0,-0.0,0.0,0.0,-0.0,-0.01041499468373021
213,5162413857,-23.800546646118164,61.24238586425781,0.0018680571811273694,0.9999864410163584,0.0,-0.0,-0.005207473805720072,0.0,-0.0,0.0,0.0,-0.0,-0.0,0.0,-0.0,0.0,0.0,-0.0,-0.01041499468373021
214,5172413857,-23.800546646118164,61.24238586425781,0.0018680571811273694,0.9999864410163584,0.0,-0.0,-0.005207473805720072,0.0,-0.0,0.0,0.0,-0.0,-0.0,0.0,-0.0,0.0,0.0,-0.0,-0.01041499468373021
215,5182413857,-23.800546646118164,61.24238586425781,0.0018680571811273694,0.9999864410163584,0.0,-0.0,-0.005207473805720072,0.0,-0.0,0.0,0.0,-0.0,-0.0,0.0,-0.0,0.0,0.0,-0.0,-0.01041499468373021
216,5192413856,-23.800546646118164,61.24238586425781,0.0018680571811273694,0.9999864410163584,0.0,-0.0,-0.005207473805720072,0.0,-0.0,0.0,0.0,-0.0,-0.0,0.0,-0.0,0.0,0.0,-0.0,-0.01041499468373021
217,5202413856,-23.800546646118164,61.24238586425781,0.0018680571811273694,0.9999864410163584,0.0,-0.0,-0.005207473805720072,0.0,-0.0,0.0,0.0,-0.0,-0.0,0.0,-0.0,0.0,0.0,-0.0,-0.01041499468373021
218,5212413856,-23.800546646118164,61.24238586425781,0.0018680571811273694,0.9999864410163584,0.0,-0.0,-0.005207473805720072,0.0,-0.0,0.0,0.0,-0.0,-0.0,0.0,-0.0,0.0,0.0,-0.0,-0.01041499468373021
219,5222413856,-23.800546646118164,61.24238586425781,0.0018680571811273694,0.9999864410163584,0.0,-0.0,-0.005207473805720072,0.0,-0.0,0.0,0.0,-0.0,-0.0,0.0,-0.0,0.0,0.0,-0.0,-0.01041499468373021
220,5232413856,-23.800546646118164,61.24238586425781,0.0018680571811273694,0.9999864410163584,0.0,-0.0,-0.005207473805720072,0.0,-0.0,0.0,0.0,-0.0,-0.0,0.0,-0.0,0.0,0.0,-0.0,-0.01041499468373021
221,5242413855,-23.800546646118164,61.24238586425781,0.0018680571811273694,0.9999864410163584,0.0,-0.0,-0.005207473805720072,0.0,-0.0,0.0,0.0,-0.0,-0.0,0.0,-0.0,0.0,0.0,-0.0,-0.01041499468373021
222,5252413855,-23.800546646118164,61.24238586425781,0.0018680571811273694,0.9999864410163584,0.0,-0.0,-0.005207473805720072,0.0,-0.0,0.0,0.0,-0.0,-0.0,0.0,-0.0,0.0,0.0,-0.0,-0.01041499468373021
223,5262413855,-23.800546646118164,61.24238586425781,0.0018680571811273694,0.9999864410163584,0.0,-0.0,-0.005207473805720072,0.0,-0.0,0.0,0.0,-0.0,-0.0,0.0,-0.0,0.0,0.0,-0.0,-0.01041499468373021
224,5272413855,-23.800546646118164,61.24238586425781,0.0018058394780382514,0.9999864410163584,0.0,-0.0,-0.005207473805720072,9.971101277983507e-09,-4.826883355235623e-07,-0.006220826879143715,-4.7742840251885355e-05,-1.9420111129875295e-05,5.676411785060509e-09,9.971100780603592e-07,-4.82688337797299e-05,-0.6220827102661133,0.0,-0.0,-0.01041499468373021
225,5282413854,-23.800546646118164,61.24238586425781,0.001753158518113196,0.9999864410163584,0.0,-0.0,-0.005207473805720072,1.13952882685453e-08,-2.7123249424221285e-07,-0.005266389809548855,-4.8994716053130105e-05,-1.970763514691498e-05,-5.025912325207216e-11,1.4241869905617932e-07,2.1145584469195455e-05,0.0954437106847763,0.0,-0.0,-0.01041499468373021
226,5292413854,-23.800546646118164,61.24238586425781,0.0017088699387386441,0.9999864410163584,0.0,-0.0,-0.005207473805720072,-5.187863472144727e-09,-3.814355125086877e-07,-0.004429788328707218,-1.0306698641215917e-05,3.235917915844766e-07,4.262926012188473e-09,-1.6583151136728702e-06,-1.1020301826647483e-05,0.08366014808416367,0.0,-0.0,-0.01041499468373021
227,5302413854,-23.800546646118164,61.24238586425781,0.001671867328695953,0.9999864410163584,0.0,-0.0,-0.005207473805720072,-1.859381626445611e-08,-3.163067958666943e-07,-0.0037020014133304358,-4.870063276030123e-05,2.079546538880095e-05,2.088535788757895e-09,-1.340595304100134e-06,6.5128715505125e-06,0.07277869433164597,0.0,-0.0,-0.01041499468373021
228,5312413854,-23.800546646118164,61.24238586425781,0.0016411590622738004,0.9999864410163584,0.0,-0.0,-0.005207473805720072,-2.092228834627008e-09,-2.56071274407077e-07,-0.003069124184548855,2.1786179331684252e-06,5.76678246488882e-07,-1.1909312425117946e-09,1.6501587651873706e-06,6.0235520322748926e-06,0.06328772008419037,0.0,-0.0,-0.01041499468373021
229,5322413854,-23.800546646118164,61.24238586425781,0.001615982037037611,0.9999864410163584,0.0,-0.0,-0.005207473805720072,1.2623243783593807e-08,-1.949082530927626e-07,-0.0025176142808049917,-4.834458013647236e-05,-1.887437974801287e-05,5.919330303694181e-11,1.4715471934323432e-06,6.116302301961696e-06,0.055150989443063736,0.0,-0.0,-0.01041499468373021
230,5332413853,-23.800546646118164,61.24238586425781,0.001595573383383453,0.9999864410163584,0.0,-0.0,-0.005207473805720072,-2.2953190459418238e-09,-5.783239842571675e-08,-0.0020397661719471216,2.8349934382276842e-06,9.195719030685723e-07,-1.923599300679424e-11,-1.4918562101229327e-06,1.3707585821975954e-05,0.04778481274843216,0.0,-0.0,-0.01041499468373021
231,5342413853,-23.800546646118164,61.24238586425781,0.00157928466796875,0.9999864410163584,0.0,-0.0,-0.005207473805720072,-1.4256752445263032e-09,-3.089204980710747e-08,-0.001627912512049079,4.374736818135716e-06,1.448475359211443e-06,2.599659931767917e-10,8.696437703292759e-08,2.694034947126056e-06,0.04118536412715912,0.0,-0.0,-0.01041499468373021
232,5352413853,-23.800546646118164,61.24238586425781,0.0015665816608816385,0.9999864410163584,0.0,-0.0,-0.005207473805720072,-1.7672799890178226e-09,-4.137302767048823e-08,-0.0012720966478809714,5.795359811600065e-06,1.8147542277802131e-06,3.3294184076382294e-10,-3.4160475337330354e-08,-1.04809782897064e-06,0.03558158501982689,0.0,-0.0,-0.01041499468373021
233,5362413853,-23.800546646118164,61.24238586425781,0.0015569304814562201,0.9999864410163584,0.0,-0.0,-0.005207473805720072,-1.8122935374620397e-09,-1.0363985225581018e-08,-0.000966682389844209,7.20629577699583e-06,2.3161308035923867e-06,3.4816674543414194e-10,-4.501354844421712e-09,3.1009044505481143e-06,0.030541425570845604,0.0,-0.0,-0.01041499468373021
234,5372413852,-23.800546646118164,61.24238586425781,0.0015498732682317495,0.9999864410163584,0.0,-0.0,-0.005207473805720072,-1.938204041707081e-09,2.365229123668655e-09,-0.0007063674856908619,-4.356279987405287e-06,2.8150629987067077e-06,4.203118686429974e-10,-1.2591049980414937e-08,1.2729213949569385e-06,0.0260314904153347,0.0,-0.0,-0.01041499468373021
235,5382413852,-23.800546646118164,61.24238586425781,0.0015450286446139216,0.9999864410163584,0.0,-0.0,-0.005207473805720072,-2.098013540674515e-09,2.2585782133432986e-08,-0.00048538207192905247,1.0140965059690643e-05,3.182947239110945e-06,-5.501575861543984e-10,-1.5980949896743368e-08,2.022055241468479e-06,0.022098541259765625,0.0,-0.0,-0.01041499468373021
236,5392413852,-23.800546646118164,61.24238586425781,0.001542053185403347,0.9999864410163584,0.0,-0.0,-0.005207473805720072,-3.577971696699933e-09,-1.0599626421026187e-07,-0.0002961349382530898,1.2250357940501999e-05,3.3812325455073733e-06,2.4037993817671577e-09,-1.4799582004343392e-07,-1.2858204172516707e-05,0.018924713134765625,0.0,-0.0,-0.01041499468373021
237,5402413852,-23.800546646118164,61.24238586425781,0.0015406799502670765,0.9999864410163584,0.0,-0.0,-0.005207473805720072,-2.4135442533435025e-09,4.3915260761195896e-08,-0.0001366138458251953,1.3039760233368725e-05,3.915066372428555e-06,3.166795492504093e-09,1.164427416711078e-07,1.4991152966103982e-05,0.015952108427882195,0.0,-0.0,-0.01041499468373021
238,5412413852,-23.800546646118164,61.24238586425781,0.0015406799502670765,0.9999864410163584,0.0,-0.0,-0.005207473805720072,-3.4620653011074864e-09,-4.587053226146054e-08,-3.0994415283203125e-06,1.647850808694784e-06,4.2233496060362086e-06,1.7215606717968512e-10,-1.0485210566457681e-07,-8.97857898962684e-06,0.0133514404296875,0.0,-0.0,-0.01041499468373021
239,5422413851,-23.800546646118164,61.24238586425781,0.0015417098766192794,0.9999864410163584,0.0,-0.0,-0.005207473805720072,1.264968219061302e-08,7.508028687652768e-08,0.00010643959103617817,-3.6035784432897344e-05,-1.5087479368958157e-05,-2.421978395616975e-09,1.6111748664116021e-06,1.209508172905771e-05,0.010953903198242188,0.0,-0.0,-0.01041499468373021
240,5432413851,-23.800546646118164,61.24238586425781,0.0015436934772878885,0.9999864410163584,0.0,-0.0,-0.005207473805720072,-3.920175739580145e-09,5.789826218460803e-08,0.00019743919256143272,1.6681198758305982e-05,4.801403974852292e-06,6.391538964756194e-10,-1.656985887166229e-06,-1.7182024976136745e-06,0.009099960327148438,0.0,-0.0,-0.01041499468373021
241,5442413851,-23.800546646118164,61.24238586425781,0.001546401996165514,0.9999864410163584,0.0,-0.0,-0.005207473805720072,1.2520385617165175e-08,1.1682304545956868e-07,0.00027106283232569695,-3.311052205390297e-05,-1.4355538951349445e-05,-1.9664823103227036e-09,1.6440560557384742e-06,5.8924783843394835e-06,0.007362363860011101,0.0,-0.0,-0.01041499468373021
242,5452413851,-23.800546646118164,61.24238586425781,0.0015497207641601562,0.9999864410163584,0.0,-0.0,-0.005207473805720072,-4.552857646444863e-09,3.671464909871247e-08,0.00033053397783078253,6.767200375179527e-06,5.502698513737414e-06,1.386440628969865e-09,-1.7073243725462817e-06,-8.010839337657671e-06,0.005947114434093237,0.0,-0.0,-0.01041499468373021
243,5462413850,-23.800546646118164,61.24238586425781,0.001553497277200222,0.9999864410163584,0.0,-0.0,-0.005207473805720072,-3.771370771232796e-09,4.932145714064973e-08,0.0003770160546991974,8.209352017729543e-06,5.951389539404772e-06,-1.7518961281659529e-10,7.814868752120674e-08,1.2606808468262898e-06,0.004648207686841488,0.0,-0.0,-0.01041499468373021
244,5472413850,-23.800546646118164,61.24238586425781,0.0015576170990243554,0.9999864410163584,0.0,-0.0,-0.005207473805720072,-3.5304807965985674e-09,1.0505782910286143e-07,0.00041199682164005935,2.240320827695541e-05,6.321922228380572e-06,-7.48168971220764e-10,2.4088997463422857e-08,5.573637281486299e-06,0.003498076694086194,0.0,-0.0,-0.01041499468373021
245,5482413850,-23.800546646118164,61.24238586425781,0.0015620040940120816,0.9999864410163584,0.0,-0.0,-0.005207473805720072,-5.117641865837186e-09,-4.173642764726537e-08,0.00043954848661087453,2.4299110009451397e-05,6.413941719074501e-06,2.2873609673013107e-09,-1.58716105147505e-07,-1.4679426385555416e-05,0.002755166497081518,0.0,-0.0,-0.01041499468373021
246,5492413850,-23.800546646118164,61.24238586425781,0.0015665816608816385,0.9999864410163584,0.0,-0.0,-0.005207473805720072,-3.4556104644423158e-09,1.4838931861049787e-07,0.0004572582256514579,2.459519964759238e-05,6.843994924565777e-06,-8.195493728102576e-10,1.6620313658677333e-07,1.901257382996846e-05,0.0017709739040583372,0.0,-0.0,-0.01041499468373021
247,5502413850,-23.800546646118164,61.24238586425781,0.0015712737804278731,0.9999864410163584,0.0,-0.0,-0.005207473805720072,1.0128239580353693e-08,2.3312876074044198e-09,0.00046894073602743447,-2.4361575924558565e-05,-1.2672909178945702e-05,8.6297030632565e-10,1.3583850204668124e-06,-1.4605802789446898e-05,0.0011682510375976562,0.0,-0.0,-0.01041499468373021
248,5512413849,-23.800546646118164,61.24238586425781,0.0015760039677843451,0.9999864410163584,0.0,-0.0,-0.005207473805720072,-6.555224807414106e-09,-5.7539068620826583e-08,0.00047426222590729594,2.7886577299796045e-05,6.760862561350223e-06,2.694783729495498e-09,-1.6683464991729124e-06,-5.9870358199987095e-06,0.0005321489879861474,0.0,-0.0,-0.01041499468373021
249,5522413849,-23.800546646118164,61.24238586425781,0.0015807723393663764,0.9999864410163584,0.0,-0.0,-0.005207473805720072,-5.143531378593025e-09,-8.360001579887921e-09,0.00047635077498853207,2.8482570996857248e-05,6.865740942885168e-06,1.5402805697561917e-09,1.4116933755303762e-07,4.917906608170597e-06,0.0002088549081236124,0.0,-0.0,-0.01041499468373021
250,5532413849,-23.800546646118164,61.24238586425781,0.0015855026431381702,0.9999864410163584,0.0,-0.0,-0.005207473805720072,-5.069985320460546e-09,3.601530185193269e-09,0.0004741573357023299,2.9508009902201593e-05,6.965433385630604e-06,1.7874127733463752e-09,7.354605813247872e-09,1.19615322091704e-06,-0.00021934392862021923,0.0,-0.0,-0.01041499468373021
251,5542413849,-23.800546646118164,61.24238586425781,0.001590194646269083,0.9999864410163584,0.0,-0.0,-0.005207473805720072,-5.813446612989992e-09,-8.19456786871342e-08,0.0004676818789448589,3.045364428544417e-05,6.768543698854046e-06,1.4966640149438604e-09,-7.434613280565827e-08,-8.55472080729669e-06,-0.0006475456757470965,0.0,-0.0,-0.01041499468373021
252,5552413848,-23.800546646118164,61.24238586425781,0.0015947723295539618,0.9999864410163584,0.0,-0.0,-0.005207473805720072,2.548268085433847e-08,5.0414854513292084e-09,0.0004590702010318637,-7.169324817368761e-05,-3.252634996897541e-05,-1.7583170475177212e-09,3.129612878183252e-06,8.698716555954888e-06,-0.0008611677912995219,0.0,-0.0,-0.01041499468373021
253,5562413848,-23.800546646118164,61.24238586425781,0.0015992354601621628,0.9999864410163584,0.0,-0.0,-0.005207473805720072,-5.873009634171922e-09,9.141361090314604e-08,0.0004480075731407851,3.080156602663919e-05,6.5201193137909286e-06,7.624806896977532e-10,-3.1355689316114876e-06,8.637212886242196e-06,-0.0011062627891078591,0.0,-0.0,-0.01041499468373021
254,5572413848,-23.800546646118164,61.24238586425781,0.0016035842709243298,0.9999864410163584,0.0,-0.0,-0.005207473805720072,-3.038566509516727e-09,2.07651638106654e-07,0.00043502807966433465,3.1646435672882944e-05,6.975645646889461e-06,-7.140646962611186e-10,2.834443080246274e-07,1.162380249297712e-05,-0.0012979493476450443,0.0,-0.0,-0.01041499468373021
255,5582413848,-23.800546646118164,61.24238586425781,0.001607818529009819,0.9999864410163584,0.0,-0.0,-0.005207473805720072,1.0794912519429545e-08,4.307797141223091e-08,0.0004220962291583419,-1.8186297893407755e-05,-1.3046818821749184e-05,9.602857398149922e-10,1.383347921546374e-06,-1.6457366655231453e-05,-0.001293185050599277,0.0,-0.0,-0.01041499468373021
256,5592413848,-23.800546646118164,61.24238586425781,0.0016118620987981558,0.9999864410163584,0.0,-0.0,-0.005207473805720072,-5.404686920229551e-09,4.199189973519424e-08,0.0004062175576109439,3.205897519364953e-05,6.538324214488966e-06,2.310248436998563e-09,-1.61996001679654e-06,-1.0860716770366707e-07,-0.0015878671547397971,0.0,-0.0,-0.01041499468373021
257,5602413847,-23.800546646118164,61.24238586425781,0.0016157912323251367,0.9999864410163584,0.0,-0.0,-0.005207473805720072,-5.787965218218005e-09,-5.613787124048031e-08,0.00039136887062340975,-5.4520121921086684e-05,7.971336344780866e-06,-8.917142579889514e-09,-3.8327829798845414e-08,-9.812977623369079e-06,-0.0014848686987534165,0.0,-0.0,-0.01041499468373021
258,5612413847,-23.800546646118164,61.24238586425781,0.001619529677554965,0.9999864410163584,0.0,-0.0,-0.005207473805720072,1.011936223704879e-08,1.7056098755574567e-08,0.0003755378711502999,-1.739394610922318e-05,-1.254102880920982e-05,3.682427029971791e-09,1.5907327224340406e-06,7.319397354876855e-06,-0.0015830999473109841,0.0,-0.0,-0.01041499468373021
259,5622413847,-23.800546646118164,61.24238586425781,0.0016231155022978783,0.9999864410163584,0.0,-0.0,-0.005207473805720072,9.036011050511661e-09,1.887107137221733e-09,0.00036043167347088456,-1.6969022908597253e-05,-1.2627316209545825e-05,-8.913710880520398e-10,-1.0833511510099925e-07,-1.5168991467362503e-06,-0.0015106197679415345,0.0,-0.0,-0.01041499468373021
260,5632413847,-23.800546646118164,61.24238586425781,0.0016265487065538764,0.9999864410163584,0.0,-0.0,-0.005207473805720072,-2.1158538032750585e-08,-4.080671078821041e-10,0.0003429412900004536,-1.6833260815474205e-05,2.7362782930140384e-05,4.005574094634312e-09,-3.019454879904515e-06,-2.2951742550958443e-07,-0.001749038347043097,0.0,-0.0,-0.01041499468373021
261,5642413846,-23.800546646118164,61.24238586425781,0.0016298294067382812,0.9999864410163584,0.0,-0.0,-0.005207473805720072,-3.918992241835895e-09,3.681949323208755e-08,0.0003269672452006489,3.4293727367185056e-05,7.144006303860806e-06,1.4413191751216914e-09,1.723954710541875e-06,3.7227562188490992e-06,-0.0015974044799804688,0.0,-0.0,-0.01041499468373021
262,5652413846,-23.800546646118164,61.24238586425781,0.0016329193022102118,0.9999864410163584,0.0,-0.0,-0.005207473805720072,-5.2867310529336464e-09,7.439323379543339e-09,0.0003099155437666923,3.5369892430026084e-05,7.322135388676543e-06,-2.413910404897024e-09,-1.367738775570615e-07,-2.9380169053183636e-06,-0.0017051701433956623,0.0,-0.0,-0.01041499468373021
263,5662413846,-23.800546646118164,61.24238586425781,0.0016358565771952271,0.9999864410163584,0.0,-0.0,-0.005207473805720072,2.4309445123549267e-08,-7.149306924247867e-08,0.0002951144997496158,-6.574077269760892e-05,-3.198279955540784e-05,-1.188073195379502e-08,2.959617631859146e-06,-7.893239853729028e-06,-0.0014801044017076492,0.0,-0.0,-0.01041499468373021
264,5672413846,-23.800546646118164,61.24238586425781,0.0016386413481086493,0.9999864410163584,0.0,-0.0,-0.005207473805720072,-6.582829392698386e-09,6.095342541811988e-08,0.00027937887352891266,3.516805008985102e-05,6.943396783753997e-06,1.5622839910633957e-08,-3.0892274480720516e-06,1.3244650290289428e-05,-0.0015735626220703125,0.0,-0.0,-0.01041499468373021
265,5682413846,-23.800546646118164,61.24238586425781,0.0016386413481086493,0.9999864410163584,0.0,-0.0,-0.005207473805720072,0.0,-0.0,0.0,0.0,-0.0,-0.0,6.582829428225523e-07,-6.095342541811988e-06,-0.027937887236475945,0.0,-0.0,-0.01041499468373021
266,5692413845,-23.800546646118164,61.24238586425781,0.0016386413481086493,0.9999864410163584,0.0,-0.0,-0.005207473805720072,-1.4582718144140472e-08,3.692668570920432e-08,6.466865306720138e-05,5.0401940825395286e-05,1.9316343241371214e-05,5.547890591373061e-09,-1.4582718677047524e-06,3.6926685424987227e-06,0.006466865539550781,0.0,-0.0,-0.01041499468373021
267,5702413845,-23.800546646118164,61.24238586425781,0.0016401290195062757,0.9999864410163584,0.0,-0.0,-0.005207473805720072,1.4372960599473572e-09,-3.017682104200503e-08,8.58211496961303e-05,-9.101615319195844e-07,-9.35870502871694e-07,-8.016271202393455e-09,1.6020013617890072e-06,-6.710350589855807e-06,0.0021152496337890625,0.0,-0.0,-0.01041499468373021
268,5712413845,-23.800546646118164,61.24238586425781,0.0016411590622738004,0.9999864410163584,0.0,-0.0,-0.005207473805720072,1.261144522146651e-09,-5.1470507855810865e-09,0.00010220527474302799,-2.114513563356013e-06,-1.7639241605138523e-06,1.5526735452908724e-09,-1.7615153780070614e-08,2.502976940377266e-06,0.0016384124755859375,0.0,-0.0,-0.01041499468373021
269,5722413845,-23.800546646118164,61.24238586425781,0.0016423034248873591,0.9999864410163584,0.0,-0.0,-0.005207473805720072,-1.3297387191357757e-08,3.626404421197549e-08,0.0001151370961451903,4.850241384701803e-05,1.7496669897809625e-05,6.1243072835281964e-09,-1.455853180232225e-06,4.141109457123093e-06,0.0012931821402162313,0.0,-0.0,-0.01041499468373021
270,5732413844,-23.800546646118164,61.24238586425781,0.0016435622237622738,0.9999864410163584,0.0,-0.0,-0.005207473805720072,-1.2240024993559473e-08,7.088324149862046e-09,0.00012513159890659153,4.8305457312380895e-05,1.706771581666544e-05,-2.2612201000526966e-09,1.0573621977982839e-07,-2.917571919169859e-06,0.0009994502179324627,0.0,-0.0,-0.01041499468373021
271,5742413844,-23.800546646118164,61.24238586425781,0.001644897391088307,0.9999864410163584,0.0,-0.0,-0.005207473805720072,3.1215254825411876e-09,-3.4946747717867765e-08,0.0001321125018876046,-3.6815333714912413e-06,-3.3421977150283055e-06,-6.370081351292356e-09,1.5361549685621867e-06,-4.203507160127629e-06,0.000698090298101306,0.0,-0.0,-0.01041499468373021
272,5752413844,-23.800546646118164,61.24238586425781,0.0016462707426398993,0.9999864410163584,0.0,-0.0,-0.005207473805720072,1.7898662107995733e-08,-4.4093894757679664e-08,0.00013789176591672003,-5.6954773754114285e-05,-2.3958755264175124e-05,-3.621256183805599e-09,1.4777136811972014e-06,-9.147146897703351e-07,0.0005779264029115438,0.0,-0.0,-0.01041499468373021
273,5762413844,-23.800546646118164,61.24238586425781,0.001647682162001729,0.9999864410163584,0.0,-0.0,-0.005207473805720072,-1.217594203239969e-08,6.389838347331533e-08,0.00013927459076512605,4.216859815642238e-05,1.4875232409394812e-05,1.405803384812998e-08,-3.0074602364038583e-06,1.0799228221003432e-05,0.00013828248484060168,0.0,-0.0,-0.01041499468373021
274,5772413844,-23.800546646118164,61.24238586425781,0.0016490935813635588,0.9999864410163584,0.0,-0.0,-0.005207473805720072,4.228322580956956e-09,-2.5858225782826594e-08,0.00014104842557571828,-7.884298611315899e-06,-4.846230694965925e-06,-9.325042071850476e-09,1.640426489757374e-06,-8.975661330623552e-06,0.0001773834810592234,0.0,-0.0,-0.01041499468373021
275,5782413843,-23.800546646118164,61.24238586425781,0.0016505050007253885,0.9999864410163584,0.0,-0.0,-0.005207473805720072,3.18167292512328e-09,-6.915363570669797e-08,0.0001412296260241419,-9.686925477581099e-05,-4.448445906746201e-06,-4.868411007663553e-09,-1.0466496291883232e-07,-4.329540843173163e-06,1.8120044842362404e-05,0.0,-0.0,-0.01041499468373021
276,5792413843,-23.800546646118164,61.24238586425781,0.0016519164200872183,0.9999864410163584,0.0,-0.0,-0.005207473805720072,4.630224204049682e-09,4.948573817387114e-08,0.00014015196938998997,-1.0446881788084283e-05,-5.7973797993327025e-06,1.0426352226033941e-08,1.4485512167539127e-07,1.186393819807563e-05,-0.00010776566341519356,0.0,-0.0,-0.01041499468373021
277,5802413843,-23.800546646118164,61.24238586425781,0.0016532897716388106,0.9999864410163584,0.0,-0.0,-0.005207473805720072,-1.027245843943092e-08,4.365594463706657e-08,0.00013748169294558465,4.034104131278582e-05,1.3407227015704848e-05,2.6495394767067637e-09,-1.4902682323736371e-06,-5.829793394696026e-07,-0.00026702764444053173,0.0,-0.0,-0.01041499468373021
278,5812413843,-23.800546646118164,61.24238586425781,0.0016546630067750812,0.9999864410163584,0.0,-0.0,-0.005207473805720072,5.462275964873697e-09,-2.9356492348142638e-08,0.00013565062545239925,-1.0505293175810948e-05,-6.579060936928727e-06,-8.826690489627254e-09,1.5734734688521712e-06,-7.301243840629468e-06,-0.0001831067493185401,0.0,-0.0,-0.01041499468373021
279,5822413842,-23.800546646118164,61.24238586425781,0.0016559981741011143,0.9999864410163584,0.0,-0.0,-0.005207473805720072,5.3045314807320665e-09,-5.6000155623792125e-09,0.00013304709864314646,-1.1884038030984811e-05,-7.432684469677042e-06,1.3474037441341125e-09,-1.577444841416309e-08,2.375647682129056e-06,-0.00026035268092527986,0.0,-0.0,-0.01041499468373021
280,5832413842,-23.800546646118164,61.24238586425781,0.0016572570893913507,0.9999864410163584,0.0,-0.0,-0.005207473805720072,5.566404226442501e-09,-1.7034312849162347e-09,0.00012776374933309853,-1.2392352800816298e-05,-7.806373105267994e-06,4.662726871274003e-10,2.6187274571043417e-08,3.8965845305938274e-07,-0.0005283349310047925,0.0,-0.0,-0.01041499468373021
281,5842413842,-23.800546646118164,61.24238586425781,0.0016585158882662654,0.9999864410163584,0.0,-0.0,-0.005207473805720072,5.9607900837477246e-09,-1.0695402341553972e-09,0.000124273297842592,-1.2746932952723e-05,-8.343203262484167e-06,5.0904825493747197e-11,3.943858573052239e-08,6.338910196745928e-08,-0.000349045149050653,0.0,-0.0,-0.01041499468373021
282,5852413842,-23.800546646118164,61.24238586425781,0.0016596984351053834,0.9999864410163584,0.0,-0.0,-0.005207473805720072,-8.584657429366871e-09,3.6277857162758664e-08,0.00012007712939521298,3.777815800276585e-05,1.089114448404871e-05,5.587182716482175e-09,-1.454544758416887e-06,3.7347397210396593e-06,-0.0004196168447379023,0.0,-0.0,-0.01041499468373021
283,5862413841,-23.800546646118164,61.24238586425781,0.001660842914134264,0.9999864410163584,0.0,-0.0,-0.005207473805720072,-7.794537459915318e-09,7.172647809028376e-09,0.00011438369256211445,3.8369013054762036e-05,1.0806582395161968e-05,-2.2714294889425446e-09,7.901199694515526e-08,-2.910520834120689e-06,-0.0005693436833098531,0.0,-0.0,-0.01041499468373021
284,5872413841,-23.800546646118164,61.24238586425781,0.0016619490925222635,0.9999864410163584,0.0,-0.0,-0.005207473805720072,6.982084244100406e-09,-3.375146562234477e-08,0.00011014938354492188,-1.1375529538781848e-05,-8.811986845103092e-06,-6.183257905689743e-09,1.4776621810597135e-06,-4.092411472811364e-06,-0.00042343090171925724,0.0,-0.0,-0.01041499468373021
285,5882413841,-23.800546646118164,61.24238586425781,0.0016630172031000257,0.9999864410163584,0.0,-0.0,-0.005207473805720072,6.566521992823482e-09,-5.756976229065458e-09,0.00010535240289755166,-1.2061320376233198e-05,-9.266398592444602e-06,2.0526917943186618e-09,-4.1556226904049254e-08,2.79944879366667e-06,-0.0004796980647370219,0.0,-0.0,-0.01041499468373021
286,5892413841,-23.800546646118164,61.24238586425781,0.0016630172031000257,0.9999864410163584,0.0,-0.0,-0.005207473805720072,-7.928649736754778e-09,3.584893093488972e-08,0.00010002135968534276,3.8741080061299726e-05,9.938758921634872e-06,6.1848677290754495e-09,-1.4495171853923239e-06,4.1605908336350694e-06,-0.0005331042921170592,0.0,-0.0,-0.01041499468373021
287,5902413841,-23.800546646118164,61.24238586425781,0.0016649627359583974,0.9999864410163584,0.0,-0.0,-0.005207473805720072,7.569822990660668e-09,-2.986677927196979e-08,9.588241664459929e-05,-1.1189656106580514e-05,-9.623076039133593e-06,-7.746392860497053e-09,1.5498471839237027e-06,-6.571571248059627e-06,-0.000413894304074347,0.0,-0.0,-0.01041499468373021
288,5912413840,-23.800546646118164,61.24238586425781,0.0016649627359583974,0.9999864410163584,0.0,-0.0,-0.005207473805720072,6.243965344765456e-09,-6.955170306355285e-08,9.057045099325478e-05,-9.9723540188279e-05,-8.824147698760498e-06,-4.328108982321055e-09,-1.3258576814223488e-07,-3.968492364947451e-06,-0.0005311965942382812,0.0,-0.0,-0.01041499468373021
289,5922413840,-23.800546646118164,61.24238586425781,0.001666755648329854,0.9999864410163584,0.0,-0.0,-0.005207473805720072,-7.585443384527935e-09,8.789211847215483e-08,8.63265959196724e-05,3.9393115002894774e-05,1.009612788038794e-05,1.630583135181496e-08,-1.3829409226673306e-06,1.5744382835691795e-05,-0.0004243855073582381,0.0,-0.0,-0.01041499468373021
290,5932413840,-23.800546646118164,61.24238586425781,0.001666755648329854,0.9999864410163584,0.0,-0.0,-0.005207473805720072,7.790367462234826e-09,-2.2798202437002146e-08,8.119583071675152e-05,-1.0866740922210738e-05,-9.787448107090313e-06,-1.0911959336112886e-08,1.5375810562545666e-06,-1.1069032552768476e-05,-0.0005130765493959188,0.0,-0.0,-0.01041499468373021
291,5942413840,-23.800546646118164,61.24238586425781,0.0016683196881785989,0.9999864410163584,0.0,-0.0,-0.005207473805720072,6.787661099849629e-09,-3.1864577643148095e-09,7.719993300270289e-05,-1.0157604265259579e-05,-9.605733794160187e-06,8.656149685926096e-10,-1.0027063979123341e-07,1.961174575626501e-06,-0.0003995897714048624,0.0,-0.0,-0.01041499468373021
292,5952413839,-23.800546646118164,61.24238586425781,0.0016683196881785989,0.9999864410163584,0.0,-0.0,-0.005207473805720072,-8.55794279885913e-09,-2.83286087920942e-08,7.370948878815398e-05,-4.757812712341547e-05,1.0801876669574995e-05,-7.916887284631358e-11,-1.5345603969763033e-06,-2.5142151116597233e-06,-0.00034904442145489156,0.0,-0.0,-0.01041499468373021
293,5962413839,-23.800546646118164,61.24238586425781,0.0016697311075404286,0.9999864410163584,0.0,-0.0,-0.005207473805720072,-6.453725998056825e-09,5.809271286238982e-08,6.91604582243599e-05,3.9820271922508255e-05,9.581171980244108e-06,7.800760037923737e-09,2.1042167475116003e-07,8.642132343084086e-06,-0.00045490305637940764,0.0,-0.0,-0.01041499468373021
294,5972413839,-23.800546646118164,61.24238586425781,0.0016697311075404286,0.9999864410163584,0.0,-0.0,-0.005207473805720072,7.624194608979451e-09,-2.5851381479924385e-08,6.575584120582789e-05,-8.938917744671926e-06,-9.641288670536596e-06,-9.088431340842362e-09,1.4077920695854118e-06,-8.394409633183386e-06,-0.0003404617018532008,0.0,-0.0,-0.01041499468373021
295,5982413839,-23.800546646118164,61.24238586425781,0.0016709899064153433,0.9999864410163584,0.0,-0.0,-0.005207473805720072,6.926536233464731e-09,-3.985546559448494e-09,6.220817158464342e-05,-8.850092854117975e-06,-9.805265108298045e-06,1.2202674426475824e-09,-6.976583932782887e-08,2.186583515140228e-06,-0.0003547669621184468,0.0,-0.0,-0.01041499468373021
296,5992413839,-23.800546646118164,61.24238586425781,0.0016709899064153433,0.9999864410163584,0.0,-0.0,-0.005207473805720072,7.092804565900224e-09,-8.659517547471296e-10,5.810737638967112e-05,-8.680519385961816e-06,-1.002251428872114e-05,3.94012017457257e-10,1.66268332435493e-08,3.1195946803563857e-07,-0.00041007951949723065,0.0,-0.0,-0.01041499468373021
297,6002413838,-23.800546646118164,61.24238586425781,0.0016720962012186646,0.9999864410163584,0.0,-0.0,-0.005207473805720072,-7.735987850310266e-09,3.704226614331674e-08,5.389213401940651e-05,4.26267106377054e-05,9.610279448679648e-06,5.715639073144985e-09,-1.4828792700427584e-06,3.7908218928350834e-06,-0.00042152422247454524,0.0,-0.0,-0.01041499468373021
298,6012413838,-23.800546646118164,61.24238586425781,0.0016720962012186646,0.9999864410163584,0.0,-0.0,-0.005207473805720072,-7.149306480158657e-09,7.920525568749781e-09,5.1708218961721286e-05,4.382311090012081e-05,9.817658792599104e-06,-2.2305832736435605e-09,5.86681352388041e-08,-2.9121740681148367e-06,-0.00021839150576852262,0.0,-0.0,-0.01041499468373021
299,6022413838,-23.800546646118164,61.24238586425781,0.0016720962012186646,0.9999864410163584,0.0,-0.0,-0.005207473805720072,7.46763717529575e-09,-3.454816877024314e-08,4.718780473922379e-05,-7.4589620453480165e-06,-9.572523595124949e-06,-6.301186683543847e-09,1.4616944099543616e-06,-4.246869593771407e-06,-0.0004520414222497493,0.0,-0.0,-0.01041499468373021
300,6032413838,-23.800546646118164,61.24238586425781,0.0016735458048060536,0.9999864410163584,0.0,-0.0,-0.005207473805720072,6.482196557300313e-09,-5.597287078273894e-09,4.4126511056674644e-05,-7.996022759471089e-06,-9.245556611858774e-06,2.211814953412272e-09,-9.854406357590051e-08,2.8950883006473305e-06,-0.0003061293682549149,0.0,-0.0,-0.01041499468373021
301,6042413837,-23.800546646118164,61.24238586425781,0.0016735458048060536,0.9999864410163584,0.0,-0.0,-0.005207473805720072,6.3302905140005805e-09,-3.0927424510274193e-10,4.213333158986643e-05,-6.812778792664176e-06,-8.985250133264344e-06,7.444803662437494e-10,-1.5190604329973212e-08,5.28801251675759e-07,-0.00019931794668082148,0.0,-0.0,-0.01041499468373021
302,6052413837,-23.800546646118164,61.24238586425781,0.0016735458048060536,0.9999864410163584,0.0,-0.0,-0.005207473805720072,-8.633445958139419e-09,3.787534197385867e-08,3.870964064844884e-05,4.5409022277453914e-05,1.0856027984118555e-05,5.796883861819424e-09,-1.4963736703066388e-06,3.818461664195638e-06,-0.00034236907958984375,0.0,-0.0,-0.01041499468373021
303,6062413837,-23.800546646118164,61.24238586425781,0.0016747283516451716,0.9999864410163584,0.0,-0.0,-0.005207473805720072,-8.891197111893234e-09,-5.812292158680066e-08,3.672599632409401e-05,-4.389634705148637e-05,1.2257381968083791e-05,-8.377467608511324e-09,-2.5775115375381574e-08,-9.59982571657747e-06,-0.00019836443243548274,0.0,-0.0,-0.01041499468373021
304,6072413837,-23.800546646118164,61.24238586425781,0.0016747283516451716,0.9999864410163584,0.0,-0.0,-0.005207473805720072,6.7571508388653e-09,1.7820878994712075e-08,3.396034298930317e-05,-6.003424459777307e-06,-7.88339093560353e-06,4.0328842487724614e-09,1.5648348608010565e-06,7.594380349473795e-06,-0.00027656531892716885,0.0,-0.0,-0.01041499468373021
305,6082413837,-23.800546646118164,61.24238586425781,0.0016747283516451716,0.9999864410163584,0.0,-0.0,-0.005207473805720072,-9.389661492775758e-09,4.058279401419895e-08,3.101348920608871e-05,4.6393619413720444e-05,1.2008556041109841e-05,4.85535833760764e-09,-1.6146811958606122e-06,2.2761914806324057e-06,-0.00029468536376953125,0.0,-0.0,-0.01041499468373021
306,6092413836,-23.800546646118164,61.24238586425781,0.0016747283516451716,0.9999864410163584,0.0,-0.0,-0.005207473805720072,-9.322316252280416e-09,-5.614370124362722e-08,2.955436684715096e-05,-4.079238715348765e-05,1.29068830574397e-05,-8.588367350625958e-09,6.7345240495342296e-09,-9.67264986684313e-06,-0.00014591222861781716,0.0,-0.0,-0.01041499468373021
307,6102413836,-23.800546646118164,61.24238586425781,0.0016747283516451716,0.9999864410163584,0.0,-0.0,-0.005207473805720072,0.0,-0.0,0.0,0.0,-0.0,-0.0,9.322316145699006e-07,5.614369911199901e-06,-0.0029554367065429688,0.0,-0.0,-0.01041499468373021
308,6112413836,-23.800546646118164,61.24238586425781,0.0016757582779973745,0.9999864410163584,0.0,-0.0,-0.005207473805720072,4.4506764940166477e-10,-2.9860691697081165e-10,6.322860372165451e-06,-4.072351202921709e-07,-5.903547162233735e-07,-9.158500346995169e-11,4.4506766272434106e-08,-2.9860693473438005e-08,0.0006322860135696828,0.0,-0.0,-0.01041499468373021
309,6122413836,-23.800546646118164,61.24238586425781,0.0016757582779973745,0.9999864410163584,0.0,-0.0,-0.005207473805720072,4.401179143354028e-10,2.962084189039871e-10,8.21113553683972e-06,8.245767446624086e-08,-6.213633128027141e-07,4.714152679330397e-11,-4.949735066261951e-10,5.948152903556547e-08,0.0001888275146484375,0.0,-0.0,-0.01041499468373021
310,6132413835,-23.800546646118164,61.24238586425781,0.0016757582779973745,0.9999864410163584,0.0,-0.0,-0.005207473805720072,7.58742513262689e-10,-2.6018717735887265e-10,1.0051727258542087e-05,-3.288547247848328e-07,-1.0497841458345647e-06,-9.288154967368456e-11,3.186245933761711e-08,-5.563956051446439e-08,0.0001840591721702367,0.0,-0.0,-0.01041499468373021
311,6142413835,-23.800546646118164,61.24238586425781,0.0016757582779973745,0.9999864410163584,0.0,-0.0,-0.005207473805720072,1.5644907591649826e-08,-3.719731722640063e-08,1.1358260962879285e-05,-5.102291106595658e-05,-2.07955436053453e-05,-5.601709318625581e-09,1.4886164763083798e-06,-3.693713097163709e-06,0.00013065336679574102,0.0,-0.0,-0.01041499468373021
312,6152413835,-23.800546646118164,61.24238586425781,0.0016757582779973745,0.9999864410163584,0.0,-0.0,-0.005207473805720072,4.5293629957754433e-10,2.9417570601708576e-08,1.1940001968469005e-05,-6.513812991215673e-07,-1.6690800066498923e-06,7.846804983557831e-09,-1.519197212473955e-06,6.661488896497758e-06,5.8174100558971986e-05,0.0,-0.0,-0.01041499468373021
313,6162413835,-23.800546646118164,61.24238586425781,0.0016757582779973745,0.9999864410163584,0.0,-0.0,-0.005207473805720072,-1.357961298964483e-08,4.185313429161397e-08,1.241683912667213e-05,5.0910271966131404e-05,1.7908912923303433e-05,3.97516242145457e-09,-1.4032549415787798e-06,1.2435564258339582e-06,4.76837158203125e-05,0.0,-0.0,-0.01041499468373021
314,6172413835,-23.800546646118164,61.24238586425781,0.0016757582779973745,0.9999864410163584,0.0,-0.0,-0.005207473805720072,2.1485730972159445e-09,-2.8925473571916882e-08,1.1930465007026214e-05,3.514084880862356e-07,-1.971652409338276e-06,-8.480689039913614e-09,1.5728186326668947e-06,-7.077861027937615e-06,-4.863741196459159e-05,0.0,-0.0,-0.01041499468373021
315,6182413834,-23.800546646118164,61.24238586425781,0.0016757582779973745,0.9999864410163584,0.0,-0.0,-0.005207473805720072,-1.3384103603186759e-08,3.346170984741548e-08,1.2178420547570568e-05,5.154095561010763e-05,1.7552867575432174e-05,7.203798446653309e-09,-1.5532677934970707e-06,6.238718924578279e-06,2.4795554054435343e-05,0.0,-0.0,-0.01041499468373021
316,6192413834,-23.800546646118164,61.24238586425781,0.0016757582779973745,0.9999864410163584,0.0,-0.0,-0.005207473805720072,2.379597408008749e-09,-3.0024537522876926e-08,1.2941360182594508e-05,1.0507460501685273e-06,-2.3281968424271327e-06,-7.47045003635094e-09,1.5763700957904803e-06,-6.348624538077274e-06,7.629395986441523e-05,0.0,-0.0,-0.01041499468373021
317,6202413834,-23.800546646118164,61.24238586425781,0.0016767883207648993,0.9999864410163584,0.0,-0.0,-0.005207473805720072,1.6498427513056413e-08,-4.234704675809553e-08,1.3608932022179943e-05,-5.1060527766821906e-05,-2.2063688447815366e-05,-3.938100068268113e-09,1.4118830904408242e-06,-1.2322509519435698e-06,6.675718759652227e-05,0.0,-0.0,-0.01041499468373021
318,6212413834,-23.800546646118164,61.24238586425781,0.0016767883207648993,0.9999864410163584,0.0,-0.0,-0.005207473805720072,1.0245310155809761e-09,2.820429934047297e-08,1.3513565136236139e-05,-1.3499454780685483e-06,-2.5270419428125024e-06,8.42679437340621e-09,-1.5473896155526745e-06,7.055134574329713e-06,-9.536688594380394e-06,0.0,-0.0,-0.01041499468373021
319,6222413833,-23.800546646118164,61.24238586425781,0.0016767883207648993,0.9999864410163584,0.0,-0.0,-0.005207473805720072,1.6824066584320008e-09,4.00096045183318e-09,1.2874603271484375e-05,-1.1746757309083478e-06,-2.3652792151551694e-06,-1.501675006565506e-09,6.578756739372693e-08,-2.4203338853112655e-06,-6.389618647517636e-05,0.0,-0.0,-0.01041499468373021
320,6232413833,-23.800546646118164,61.24238586425781,0.0016767883207648993,0.9999864410163584,0.0,-0.0,-0.005207473805720072,1.756460754620548e-09,7.426282921940697e-10,1.2121200597903226e-05,-8.380420126741228e-07,-2.4759665393503383e-06,-4.701671829643317e-10,7.405409618854719e-09,-3.25833241276996e-07,-7.534027099609375e-05,0.0,-0.0,-0.01041499468373021
321,6242413833,-23.800546646118164,61.24238586425781,0.0016767883207648993,0.9999864410163584,0.0,-0.0,-0.005207473805720072,-1.32437110167416e-08,3.728441200223642e-08,1.1672973414533772e-05,4.997825817554258e-05,1.737668389978353e-05,5.523353330261216e-09,-1.5000172197687789e-06,3.654178499346017e-06,-4.48227183369454e-05,0.0,-0.0,-0.01041499468373021
322,6252413833,-23.800546646118164,61.24238586425781,0.0016767883207648993,0.9999864410163584,0.0,-0.0,-0.005207473805720072,2.4795598907445537e-09,-2.9540213830614448e-08,1.1739730325643905e-05,-4.889446927336394e-07,-2.4505993678758387e-06,-7.950221814212455e-09,1.5723271644674242e-06,-6.682462753815344e-06,6.675691111013293e-06,0.0,-0.0,-0.01041499468373021
323,6262413833,-23.800546646118164,61.24238586425781,0.0016767883207648993,0.9999864410163584,0.0,-0.0,-0.005207473805720072,1.1354974738253532e-09,-6.990956080699107e-08,1.1396407899155747e-05,-9.025057079270482e-05,-1.6417154711234616e-06,-4.410693588141612e-09,-1.3440623547467112e-07,-4.0369345697399694e-06,-3.4332242648815736e-05,0.0,-0.0,-0.01041499468373021
324,6272413832,-23.800546646118164,61.24238586425781,0.0016767883207648993,0.9999864410163584,0.0,-0.0,-0.005207473805720072,-1.2488982292779838e-08,8.761689684888552e-08,1.1377333976270165e-05,4.79508307762444e-05,1.7016158381011337e-05,1.6275155445555356e-08,-1.3624479606733075e-06,1.5752646504552104e-05,-1.907392288558185e-06,0.0,-0.0,-0.01041499468373021
325,6282413832,-23.800546646118164,61.24238586425781,0.0016767883207648993,0.9999864410163584,0.0,-0.0,-0.005207473805720072,-1.2084989009508718e-08,1.5103982065056698e-08,1.009941115626134e-05,4.892753349849954e-05,1.6954840248217806e-05,-5.194531027541416e-09,4.0399328327112016e-08,-7.251291663123993e-06,-0.00012779228563886136,0.0,-0.0,-0.01041499468373021
326,6292413832,-23.800546646118164,61.24238586425781,0.0016778564313426614,0.9999864410163584,0.0,-0.0,-0.005207473805720072,1.767644697281412e-08,-7.015695757672802e-08,1.0805129932123236e-05,-5.2680494263768196e-05,-2.2615959096583538e-05,-1.2783419656159367e-08,2.976143605337711e-06,-8.526093552063685e-06,7.057187758618966e-05,0.0,-0.0,-0.01041499468373021
327,6302413832,-23.800546646118164,61.24238586425781,0.0016778564313426614,0.9999864410163584,0.0,-0.0,-0.005207473805720072,1.6886678722016768e-09,2.4527256670126008e-08,9.765624781721272e-06,-2.581838316473295e-06,-3.461565711404546e-06,9.858498017933925e-09,-1.5987779988790862e-06,9.468421012570616e-06,-0.00010395051504019648,0.0,-0.0,-0.01041499468373021
328,6312413831,-23.800546646118164,61.24238586425781,0.0016778564313426614,0.9999864410163584,0.0,-0.0,-0.005207473805720072,2.8465971801949763e-09,3.1603826222692533e-09,9.679793947725557e-06,-2.7726530333893606e-06,-3.971455953433178e-06,-1.1604022187583496e-09,1.1579292902297311e-07,-2.136687498932588e-06,-8.583083399571478e-06,0.0,-0.0,-0.01041499468373021
329,6322413831,-23.800546646118164,61.24238586425781,0.0016778564313426614,0.9999864410163584,0.0,-0.0,-0.005207473805720072,2.9126541178925436e-09,4.5535925030648627e-10,9.489059266343247e-06,-2.562451982157654e-06,-4.108146640646737e-06,-3.8212324970920974e-10,6.605693769756726e-09,-2.7050234052694577e-07,-1.9073468138230965e-05,0.0,-0.0,-0.01041499468373021
330,6332413831,-23.800546646118164,61.24238586425781,0.0016778564313426614,0.9999864410163584,0.0,-0.0,-0.005207473805720072,-1.153979667378735e-08,3.7045293055371076e-08,8.19206252344884e-06,4.809560050489381e-05,1.5017199984868057e-05,5.458578922201696e-09,-1.445245061404421e-06,3.658993364297203e-06,-0.00012969967792741954,0.0,-0.0,-0.01041499468373021
331,6342413831,-23.800546646118164,61.24238586425781,0.0016778564313426614,0.9999864410163584,0.0,-0.0,-0.005207473805720072,3.1896409957710148e-09,-9.402962319882135e-08,8.153915587172378e-06,-9.024838800542057e-05,-3.475592393442639e-06,-1.3843842516791938e-08,1.4729437225469155e-06,-1.3107491213304456e-05,-3.814693627646193e-06,0.0,-0.0,-0.01041499468373021
332,6352413831,-23.800546646118164,61.24238586425781,0.0016778564313426614,0.9999864410163584,0.0,-0.0,-0.005207473805720072,-1.0979309905678747e-08,8.363484482742933e-08,7.44819635656313e-06,4.713613452622667e-05,1.4863815522403456e-05,1.7276814645583727e-08,-1.4168950883686193e-06,1.7766447854228318e-05,-7.057192124193534e-05,0.0,-0.0,-0.01041499468373021
333,6362413830,-23.800546646118164,61.24238586425781,0.0016778564313426614,0.9999864410163584,0.0,-0.0,-0.005207473805720072,1.9095031333904444e-08,-5.962361626643542e-08,7.591247594973538e-06,-5.305915328790434e-05,-2.4501816369593143e-05,-1.596770182743512e-08,3.007433861057507e-06,-1.4325845768325962e-05,1.4305123841040768e-05,0.0,-0.0,-0.01041499468373021
334,6372413830,-23.800546646118164,61.24238586425781,0.0016778564313426614,0.9999864410163584,0.0,-0.0,-0.005207473805720072,-1.1591636983609988e-08,6.27692031685001e-08,6.4277646742993966e-06,4.7261932195397094e-05,1.4024225492903497e-05,1.4232039546868691e-08,-3.0686667287227465e-06,1.2239282114023808e-05,-0.00011634829570539296,0.0,-0.0,-0.01041499468373021
335,6382413830,-23.800546646118164,61.24238586425781,0.0016778564313426614,0.9999864410163584,0.0,-0.0,-0.005207473805720072,1.947329941742737e-08,-6.273698005543338e-08,6.4373016357421875e-06,-5.3196716180536896e-05,-2.514851075829938e-05,-1.4755388910714373e-08,3.1064935228641843e-06,-1.2550617611850612e-05,9.536961442790926e-07,0.0,-0.0,-0.01041499468373021
336,6392413830,-23.800546646118164,61.24238586425781,0.0016778564313426614,0.9999864410163584,0.0,-0.0,-0.005207473805720072,-1.1143053590956242e-08,6.248897932437103e-08,5.140304438100429e-06,4.734971298603341e-05,1.3375815797189716e-05,1.4611908127903916e-08,-3.0616351978096645e-06,1.252259698958369e-05,-0.00012969972158316523,0.0,-0.0,-0.01041499468373021
337,6402413829,-23.800546646118164,61.24238586425781,0.0016778564313426614,0.9999864410163584,0.0,-0.0,-0.005207473805720072,5.122993584905089e-09,-2.549952959896018e-08,5.455016889754916e-06,-2.2292799712886335e-06,-6.187619419506518e-06,-9.082617324907005e-09,1.6266046714008553e-06,-8.798851013125386e-06,3.1471245165448636e-05,0.0,-0.0,-0.01041499468373021
338,6412413829,-23.800546646118164,61.24238586425781,0.0016778564313426614,0.9999864410163584,0.0,-0.0,-0.005207473805720072,4.459545621671168e-09,-3.497016232145711e-09,6.151199158921372e-06,-1.9565425191103714e-06,-6.353035587380873e-06,1.2288835504747908e-09,-6.634479632339207e-08,2.2002514015184715e-06,6.961822509765625e-05,0.0,-0.0,-0.01041499468373021
339,6422413829,-23.800546646118164,61.24238586425781,0.0016778564313426614,0.9999864410163584,0.0,-0.0,-0.005207473805720072,-1.0016997897821511e-08,3.6574665074340373e-08,4.301070930523565e-06,4.879670814261772e-05,1.2825534213334322e-05,5.95375482248528e-09,-1.4476543128694175e-06,4.007168172392994e-06,-0.0001850128173828125,0.0,-0.0,-0.01041499468373021
340,6432413829,-23.800546646118164,61.24238586425781,0.0016778564313426614,0.9999864410163584,0.0,-0.0,-0.005207473805720072,5.501076483227507e-09,-2.8962221065853555e-08,4.472732598514995e-06,-6.412106472453161e-07,-6.7672958721232135e-06,-7.755980746537716e-09,1.5518073723796988e-06,-6.553688763233367e-06,1.7166166799142957e-05,0.0,-0.0,-0.01041499468373021
341,6442413829,-23.800546646118164,61.24238586425781,0.0016788863576948643,0.9999864410163584,0.0,-0.0,-0.005207473805720072,4.273823517308983e-09,-6.877625224888106e-08,4.301070930523565e-06,-8.892254118109122e-05,-6.105350621510297e-06,-4.355622529317316e-09,-1.2272529659185238e-07,-3.981403096986469e-06,-1.7166166799142957e-05,0.0,-0.0,-0.01041499468373021
342,6452413828,-23.800546646118164,61.24238586425781,0.0016788863576948643,0.9999864410163584,0.0,-0.0,-0.005207473805720072,5.620968579478358e-09,5.0584358035621335e-08,4.110336249141255e-06,-1.5252740013238508e-06,-7.300273409782676e-06,1.056165288559896e-08,1.34714511546008e-07,1.1936061127926223e-05,-1.9073468138230965e-05,0.0,-0.0,-0.01041499468373021
343,6462413828,-23.800546646118164,61.24238586425781,0.0016788863576948643,0.9999864410163584,0.0,-0.0,-0.005207473805720072,-9.15561315650848e-09,4.427667121831291e-08,3.566741952454322e-06,4.939552309224382e-05,1.1741350135707762e-05,2.6008952769274174e-09,-1.4776582020203932e-06,-6.307686817308422e-07,-5.4359428759198636e-05,0.0,-0.0,-0.01041499468373021
344,6472413828,-23.800546646118164,61.24238586425781,0.0016788863576948643,0.9999864410163584,0.0,-0.0,-0.005207473805720072,6.169151856028066e-09,-2.805760246360478e-08,3.604888888730784e-06,-3.0469763601104205e-07,-7.714573257544544e-06,-8.709958088104486e-09,1.532476517240866e-06,-7.233427368191769e-06,3.814693627646193e-06,0.0,-0.0,-0.01041499468373021
345,6482413828,-23.800546646118164,61.24238586425781,0.0016788863576948643,0.9999864410163584,0.0,-0.0,-0.005207473805720072,-1.0145620343848805e-08,-3.06502698776967e-08,3.7288664316292852e-06,-3.673188257380389e-05,1.2926528142997995e-05,1.1943180888707161e-09,-1.631477175578766e-06,-2.5926675562004675e-07,1.2397754289850127e-05,0.0,-0.0,-0.01041499468373021
346,6492413827,-23.800546646118164,61.24238586425781,0.0016788863576948643,0.9999864410163584,0.0,-0.0,-0.005207473805720072,6.582761002960069e-09,2.1570732755549216e-08,2.9945372261863668e-06,6.150058879939024e-07,-7.640320291102398e-06,2.6331883340446893e-09,1.6728382661312935e-06,5.2221002988517284e-06,-7.343292236328125e-05,0.0,-0.0,-0.01041499468373021
347,6502413827,-23.800546646118164,61.24238586425781,0.0016788863576948643,0.9999864410163584,0.0,-0.0,-0.005207473805720072,-9.058764405267539e-09,4.0167478232433496e-08,2.317428425158141e-06,5.134427919983864e-05,1.1536531928868499e-05,4.2490415630425105e-09,-1.5641525124010514e-06,1.8596745121612912e-06,-6.771087646484375e-05,0.0,-0.0,-0.01041499468373021
348,6512413827,-23.800546646118164,61.24238586425781,0.0016788863576948643,0.9999864410163584,0.0,-0.0,-0.005207473805720072,6.313153999570886e-09,-2.8435424681561017e-08,2.2220610844669864e-06,1.8020413108388311e-06,-7.94761763245333e-06,-8.197407197485518e-09,1.5371919062090456e-06,-6.860290341137443e-06,-9.536734069115482e-06,0.0,-0.0,-0.01041499468373021
349,6522413827,-23.800546646118164,61.24238586425781,0.0016788863576948643,0.9999864410163584,0.0,-0.0,-0.005207473805720072,0.0,-0.0,0.0,0.0,-0.0,-0.0,-6.313154017334455e-07,2.8435424610506743e-06,-0.00022220611572265625,0.0,-0.0,-0.01041499468373021
350,6532413827,-23.800546646118164,61.24238586425781,0.0016788863576948643,0.9999864410163584,0.0,-0.0,-0.005207473805720072,-1.0237913294908196e-10,-9.336961065420368e-11,2.8610227786884934e-07,-1.275863610317174e-07,1.359592118888031e-07,5.859564569665743e-12,-1.0237913627975104e-08,-9.336961426242851e-09,2.8610227673198096e-05,0.0,-0.0,-0.01041499468373021
351,6542413826,-23.800546646118164,61.24238586425781,0.0016788863576948643,0.9999864410163584,0.0,-0.0,-0.005207473805720072,-1.9719961774633532e-10,-1.1147042316972389e-10,5.722045557376987e-07,-2.5573601192263595e-07,2.7193499363420415e-07,1.2441535648943791e-11,-9.482048923814546e-09,-1.8100811960408691e-09,2.8610227673198096e-05,0.0,-0.0,-0.01041499468373021
352,6552413826,-23.800546646118164,61.24238586425781,0.0016788863576948643,0.9999864410163584,0.0,-0.0,-0.005207473805720072,-2.9169699988784714e-10,-1.1870171512384786e-10,8.583068620282575e-07,-3.839694784346648e-07,4.079112443378108e-07,1.4087802972795327e-11,-9.449737881084275e-09,-7.231292231679731e-10,2.8610231311176904e-05,0.0,-0.0,-0.01041499468373021
353,6562413826,-23.800546646118164,61.24238586425781,0.0016788863576948643,0.9999864410163584,0.0,-0.0,-0.005207473805720072,-3.8616843056615835e-10,-1.2436031371354517e-10,1.1444091114753974e-06,-5.122114430378133e-07,5.438881203190249e-07,1.4398300260398678e-11,-9.44714351192033e-09,-5.658598589697306e-10,2.8610225854208693e-05,0.0,-0.0,-0.01041499468373021
354,6572413826,-23.800546646118164,61.24238586425781,0.0016788863576948643,0.9999864410163584,0.0,-0.0,-0.005207473805720072,-4.80636364041942e-10,-1.2979506358590243e-10,1.430511474609375e-06,-6.404563350770331e-07,6.79864797348273e-07,1.4450040122793162e-11,-9.446793569622969e-09,-5.434749872357258e-10,2.8610236768145114e-05,0.0,-0.0,-0.01041499468373021
355,6582413825,-23.800546646118164,61.24238586425781,0.0016788863576948643,0.9999864410163584,0.0,-0.0,-0.005207473805720072,-5.751038534285158e-10,-1.3519556307795e-10,1.716613724056515e-06,-7.686998060307815e-07,8.158414743775211e-07,1.4456497630932486e-11,-9.446749160701984e-09,-5.400499492047572e-10,2.8610225854208693e-05,0.0,-0.0,-0.01041499468373021
356,6592413825,-23.800546646118164,61.24238586425781,0.0016788863576948643,0.9999864410163584,0.0,-0.0,-0.005207473805720072,-6.695713428150896e-10,-1.4059206576710892e-10,2.002715973503655e-06,-8.969430496108544e-07,9.518182650936069e-07,1.4457666834555294e-11,-9.446749160701984e-09,-5.396502689158922e-10,2.8610225854208693e-05,0.0,-0.0,-0.01041499468373021
357,6602413825,-23.800546646118164,61.24238586425781,0.0016788863576948643,0.9999864410163584,0.0,-0.0,-0.005207473805720072,1.4689009120161245e-08,2.647797359145443e-08,1.115798909268051e-06,3.5341294278623536e-05,-1.9446151782176457e-05,3.0580268872704153e-10,1.5358580185420578e-06,2.661856569829979e-06,-8.869170414982364e-05,0.0,-0.0,-0.01041499468373021
358,6612413825,-23.800546646118164,61.24238586425781,0.0016788863576948643,0.9999864410163584,0.0,-0.0,-0.005207473805720072,-1.9549144525399242e-09,-2.3076644595221296e-08,1.058578504853358e-06,-3.132149458906497e-06,1.048942749548587e-06,-2.241276275682935e-09,-1.664392357270117e-06,-4.9554619181435555e-06,-5.722040441469289e-06,0.0,-0.0,-0.01041499468373021
359,6622413825,-23.800546646118164,61.24238586425781,0.0016788863576948643,0.9999864410163584,0.0,-0.0,-0.005207473805720072,-9.160675551456166e-10,-4.636389050460821e-09,1.306533818024036e-06,-4.879099378740648e-06,1.226964400302677e-06,1.3523521191771692e-09,1.0388468751898472e-07,1.8440255189489108e-06,2.47955322265625e-05,0.0,-0.0,-0.01041499468373021
360,6632413824,-23.800546646118164,61.24238586425781,0.0016788863576948643,0.9999864410163584,0.0,-0.0,-0.005207473805720072,-9.676482948250964e-10,-2.04079020349468e-09,1.554489131194714e-06,-6.50728497930686e-06,1.402229827363044e-06,3.8940750624050224e-10,-5.158073967947985e-09,2.5955989713111194e-07,2.47955322265625e-05,0.0,-0.0,-0.01041499468373021
361,6642413824,-23.800546646118164,61.24238586425781,0.0016788863576948643,0.9999864410163584,0.0,-0.0,-0.005207473805720072,-1.313443021011551e-09,-1.2027501217204417e-09,1.8119811784345075e-06,-7.394597560050897e-06,1.895203808999213e-06,1.6784344747389213e-10,-3.457947173046705e-08,8.38040108419591e-08,2.5749204723979346e-05,0.0,-0.0,-0.01041499468373021
362,6652413824,-23.800546646118164,61.24238586425781,0.0016788863576948643,0.9999864410163584,0.0,-0.0,-0.005207473805720072,-1.6518182377467383e-09,-1.1161277457816254e-09,2.069473111987463e-06,-8.276281732833013e-06,2.3881441393314162e-06,7.358202241958267e-11,-3.383752300578635e-08,8.662237149792418e-09,2.5749193810042925e-05,0.0,-0.0,-0.01041499468373021
363,6662413824,-23.800546646118164,61.24238586425781,0.0016788863576948643,0.9999864410163584,0.0,-0.0,-0.005207473805720072,-1.1136951361123693e-09,6.335570645887856e-08,1.5640258652638295e-06,7.889873086242005e-05,1.6530102584511042e-06,5.980770101388089e-09,5.3812311051615325e-08,6.44718329567695e-06,-5.054472421761602e-05,0.0,-0.0,-0.01041499468373021
364,6672413823,-23.800546646118164,61.24238586425781,0.0016788863576948643,0.9999864410163584,0.0,-0.0,-0.005207473805720072,-1.6330223839844393e-09,1.1417646383904412e-08,1.7738342421580455e-06,7.78063913458027e-05,1.7150783833130845e-06,-4.186299751296474e-09,-5.193272301085017e-08,-5.193805918679573e-06,2.0980838598916307e-05,0.0,-0.0,-0.01041499468373021
365,6682413823,-23.800546646118164,61.24238586425781,0.0016788863576948643,0.9999864410163584,0.0,-0.0,-0.005207473805720072,-1.7378706473891725e-08,-3.322768904467921e-08,2.4127959932229714e-06,2.5726518288138323e-05,2.2538453777087852e-05,-2.3689425976414213e-09,-1.574568386786268e-06,-4.464533503778512e-06,6.389617192326114e-05,0.0,-0.0,-0.01041499468373021
366,6692413823,-23.800546646118164,61.24238586425781,0.0016788863576948643,0.9999864410163584,0.0,-0.0,-0.005207473805720072,1.4235570056086999e-08,-4.996304703297483e-09,1.7642973944020923e-06,2.3617740225745365e-05,-1.7676427887636237e-05,-2.10882333817608e-09,3.1614276849722955e-06,2.8231384021637496e-06,-6.484986079158261e-05,0.0,-0.0,-0.01041499468373021
367,6702413823,-23.800546646118164,61.24238586425781,0.0016788863576948643,0.9999864410163584,0.0,-0.0,-0.005207473805720072,1.2201727628280423e-08,-2.0286299307059608e-09,1.964569037227193e-06,2.057207893813029e-05,-1.7573942386661656e-05,3.5305267043206356e-10,-2.0338424633337127e-07,2.967674674891896e-07,2.0027164282510057e-05,0.0,-0.0,-0.01041499468373021
368,6712413822,-23.800546646118164,61.24238586425781,0.0016788863576948643,0.9999864410163584,0.0,-0.0,-0.005207473805720072,1.153523498942377e-08,-6.522562046029634e-08,1.3923644246460753e-06,-6.914586992934346e-05,-1.6656229490763508e-05,-5.798857394267998e-09,-6.664926388566528e-08,-6.319699423329439e-06,-5.722046262235381e-05,0.0,-0.0,-0.01041499468373021
369,6722413822,-23.800546646118164,61.24238586425781,0.0016788863576948643,0.9999864410163584,0.0,-0.0,-0.005207473805720072,1.1982144165756381e-08,-1.3746793925406564e-08,1.5449523971255985e-06,-7.132120663300157e-05,-1.658376640989445e-05,4.1720040755421905e-09,4.469091763326105e-08,5.147882802702952e-06,1.5258796338457614e-05,0.0,-0.0,-0.01041499468373021
370,6732413822,-23.800546646118164,61.24238586425781,0.0016788863576948643,0.9999864410163584,0.0,-0.0,-0.005207473805720072,-2.802230447684906e-09,3.101738954569555e-08,2.117157009706716e-06,-2.210258571722079e-05,3.1471397505811183e-06,6.739106606090672e-09,-1.4784374116061372e-06,4.476418325793929e-06,5.722046262235381e-05,0.0,-0.0,-0.01041499468373021
371,6742413822,-23.800546646118164,61.24238586425781,0.0016788863576948643,0.9999864410163584,0.0,-0.0,-0.005207473805720072,-2.3771227208868595e-09,2.929434694820543e-09,7.820129326319147e-07,-2.277226303704083e-05,3.6125911719864234e-06,-2.0062833616663056e-09,4.251077356798305e-08,-2.808795443343115e-06,-0.00013351441884879023,0.0,-0.0,-0.01041499468373021
372,6752413822,-23.800546646118164,61.24238586425781,0.0016788863576948643,0.9999864410163584,0.0,-0.0,-0.005207473805720072,-2.722616132544431e-09,-1.2009981897875832e-09,8.964538551481382e-07,-2.3683003746555187e-05,4.0787381294649094e-06,-5.44097933374843e-10,-3.454934116575714e-08,-4.1304329556624e-07,1.1444091796875e-05,0.0,-0.0,-0.01041499468373021
373,6762413821,-23.800546646118164,61.24238586425781,0.0016788863576948643,0.9999864410163584,0.0,-0.0,-0.005207473805720072,-3.0505655779222707e-09,-1.8339277874090953e-09,1.0108947208209429e-06,-2.4619948817417026e-05,4.545127012534067e-06,-6.861231027777137e-11,-3.279494364960556e-08,-6.329295842988358e-08,1.144408633990679e-05,0.0,-0.0,-0.01041499468373021
374,6772413821,-23.800546646118164,61.24238586425781,0.0016788863576948643,0.9999864410163584,0.0,-0.0,-0.005207473805720072,-3.372379930866032e-09,-1.9622345970304877e-09,1.1253356433371664e-06,-2.556067192927003e-05,5.011556822864804e-06,2.65379003494548e-11,-3.2181436182554535e-08,-1.283068051805003e-08,1.1444091796875e-05,0.0,-0.0,-0.01041499468373021
375,6782413821,-23.800546646118164,61.24238586425781,0.0016788863576948643,0.9999864410163584,0.0,-0.0,-0.005207473805720072,-3.6931975255782845e-09,-2.0177279846933516e-09,1.23977656585339e-06,-2.6501935280975886e-05,5.477992544911103e-06,4.3061401666655286e-11,-3.208175769486843e-08,-5.5493387662863825e-09,1.1444091796875e-05,0.0,-0.0,-0.01041499468373021
376,6792413821,-23.800546646118164,61.24238586425781,0.0016788863576948643,0.9999864410163584,0.0,-0.0,-0.005207473805720072,1.1507723662873559e-08,2.5551251781052997e-08,1.6689300537109375e-06,1.0274957276124042e-05,-1.4681455468235072e-05,4.204276093933146e-10,1.5200921552604996e-06,2.7568980840442237e-06,4.291534787626006e-05,0.0,-0.0,-0.01041499468373021
377,6802413820,-23.800546646118164,61.24238586425781,0.0016788863576948643,0.9999864410163584,0.0,-0.0,-0.005207473805720072,-5.263556257517621e-09,-2.3705711171828625e-08,1.4781951449549524e-06,-2.74680060101673e-05,5.996614618197782e-06,-2.1839052788408253e-09,-1.6771278978922055e-06,-4.925695975543931e-06,-1.9073489966103807e-05,0.0,-0.0,-0.01041499468373021
378,6812413820,-23.800546646118164,61.24238586425781,0.0016788863576948643,0.9999864410163584,0.0,-0.0,-0.005207473805720072,1.0861515242766018e-08,2.2727030923874736e-08,1.9073486328125e-06,9.649637831898872e-06,-1.3866888366464991e-05,1.8303011328768548e-09,1.612507048776024e-06,4.643274223781191e-06,4.291534787626006e-05,0.0,-0.0,-0.01041499468373021
379,6822413820,-23.800546646118164,61.24238586425781,0.0016788863576948643,0.9999864410163584,0.0,-0.0,-0.005207473805720072,-6.058190837876509e-09,-2.3784446412378202e-08,1.716613724056515e-06,-2.763176780717913e-05,7.104382802936016e-06,-1.7607265645480652e-09,-1.6919706240514643e-06,-4.651147719414439e-06,-1.9073489966103807e-05,0.0,-0.0,-0.01041499468373021
380,6832413820,-23.800546646118164,61.24238586425781,0.0016788863576948643,0.9999864410163584,0.0,-0.0,-0.005207473805720072,1.0085249080304948e-08,2.2715148872975988e-08,2.1457672119140625e-06,9.485373084316961e-06,-1.2759086530422792e-05,1.8775350163480198e-09,1.6143440006999299e-06,4.649959464586573e-06,4.291534787626006e-05,0.0,-0.0,-0.01041499468373021
381,6842413820,-23.800546646118164,61.24238586425781,0.0016788863576948643,0.9999864410163584,0.0,-0.0,-0.005207473805720072,-6.239361916016151e-09,4.0921470656485326e-08,1.182556161438697e-06,6.055237099644728e-05,7.359531537076691e-06,4.233081885018919e-09,-1.6324611351592466e-06,1.8206321783509338e-06,-9.632110595703125e-05,0.0,-0.0,-0.01041499468373021
382,6852413819,-23.800546646118164,61.24238586425781,0.0016788863576948643,0.9999864410163584,0.0,-0.0,-0.005207473805720072,-6.060543622510295e-09,8.222738934193785e-09,1.2493132999225054e-06,6.0401380324037746e-05,8.063524546741974e-06,-2.659496178836207e-09,1.7881829350585576e-08,-3.2698733321012696e-06,6.675713848380838e-06,0.0,-0.0,-0.01041499468373021
383,6862413819,-23.800546646118164,61.24238586425781,0.0016788863576948643,0.9999864410163584,0.0,-0.0,-0.005207473805720072,-6.345768799320695e-09,3.008314042318716e-09,1.325607286162267e-06,5.9378482546890154e-05,8.449628694506828e-06,-7.203200813599153e-10,-2.852251768103997e-08,-5.214424732002954e-07,7.629398169228807e-06,0.0,-0.0,-0.01041499468373021
384,6872413819,-23.800546646118164,61.24238586425781,0.0016788863576948643,0.9999864410163584,0.0,-0.0,-0.005207473805720072,-6.3778400338776464e-09,1.7730104051594253e-09,1.3923644246460753e-06,5.772135409642942e-05,8.517089554516133e-06,-1.8448895189315806e-10,-3.207123455695182e-09,-1.23530369933178e-07,6.675713848380838e-06,0.0,-0.0,-0.01041499468373021
385,6882413819,-23.800546646118164,61.24238586425781,0.0016788863576948643,0.9999864410163584,0.0,-0.0,-0.005207473805720072,-2.1989055909443778e-08,-3.556273853178027e-08,1.8882750509874313e-06,5.403790510172257e-06,2.9288583391462453e-05,-1.292516316198089e-09,-1.5611215076205553e-06,-3.7335748857003637e-06,4.9591064453125e-05,0.0,-0.0,-0.01041499468373021
386,6892413818,-23.800546646118164,61.24238586425781,0.0016788863576948643,0.9999864410163584,0.0,-0.0,-0.005207473805720072,-5.394133584246674e-09,3.04902094683257e-08,1.5449523971255985e-06,5.3298354032449424e-05,8.986965440271888e-06,3.695396877390067e-09,1.6594922271906398e-06,6.605294856854016e-06,-3.433226447668858e-05,0.0,-0.0,-0.01041499468373021
387,6902413818,-23.800546646118164,61.24238586425781,0.0016788863576948643,0.9999864410163584,0.0,-0.0,-0.005207473805720072,8.54372927960867e-09,-2.279123201276434e-08,1.9359588350198464e-06,1.3214203136158176e-05,-1.1062785233661998e-05,-6.61175514338197e-09,1.3937861922386219e-06,-5.328143743099645e-06,3.910064333467744e-05,0.0,-0.0,-0.01041499468373021
388,6912413818,-23.800546646118164,61.24238586425781,0.0016788863576948643,0.9999864410163584,0.0,-0.0,-0.005207473805720072,7.547203750846165e-09,-1.420716166933289e-08,1.2683867680607364e-06,-2.508480747565045e-06,-1.0909529919445049e-05,2.704850787793589e-10,-9.965255287625041e-08,8.584070201322902e-07,-6.675720942439511e-05,0.0,-0.0,-0.01041499468373021
389,6922413818,-23.800546646118164,61.24238586425781,0.0016788863576948643,0.9999864410163584,0.0,-0.0,-0.005207473805720072,7.563694559564738e-09,-4.291154986901802e-09,1.325607286162267e-06,-5.4213846851780545e-06,-1.0804760677274317e-05,9.558178692969932e-10,1.6490808718572225e-09,9.91600700217532e-07,5.7220518101530615e-06,0.0,-0.0,-0.01041499468373021
390,6932413818,-23.800546646118164,61.24238586425781,0.0016788863576948643,0.9999864410163584,0.0,-0.0,-0.005207473805720072,7.28764559809747e-09,-2.4940975951182054e-09,1.3828276905769599e-06,-7.607400220877025e-06,-1.0382163964095525e-05,3.0594676792006226e-10,-2.7604896146726787e-08,1.7970573651382438e-07,5.722040441469289e-06,0.0,-0.0,-0.01041499468373021
391,6942413817,-23.800546646118164,61.24238586425781,0.0016788863576948643,0.9999864410163584,0.0,-0.0,-0.005207473805720072,0.0,-0.0,0.0,0.0,-0.0,-0.0,-7.287645757969585e-07,2.494097657290695e-07,-0.00013828277587890625,0.0,-0.0,-0.01041499468373021
392,6952413817,-23.800546646118164,61.24238586425781,0.0016788863576948643,0.9999864410163584,0.0,-0.0,-0.005207473805720072,-3.170566309496081e-10,-1.5823077292864696e-09,4.768371297814156e-08,-2.1606992959277704e-06,4.223240068768064e-07,-1.0320665849716804e-10,-3.170566387211693e-08,-1.5823077603727143e-07,4.768371127283899e-06,0.0,-0.0,-0.01041499468373021
393,6962413817,-23.800546646118164,61.24238586425781,0.0016788863576948643,0.9999864410163584,0.0,-0.0,-0.005207473805720072,-6.01834526658962e-10,-1.8997710071744223e-09,1.0490417423625331e-07,-4.330874162405962e-06,8.447779578091286e-07,2.7020426911564255e-13,-2.8477789015823873e-08,-3.174632823288448e-08,5.7220458984375e-06,0.0,-0.0,-0.01041499468373021
394,6972413817,-23.800546646118164,61.24238586425781,0.0016788863576948643,0.9999864410163584,0.0,-0.0,-0.005207473805720072,-8.837362508451463e-10,-2.0346968554463274e-09,1.6212463549436507e-07,-6.50241690891562e-06,1.2672480806941167e-06,2.756437439410675e-11,-2.819017197452922e-08,-1.3492584827190512e-08,5.7220458984375e-06,0.0,-0.0,-0.01041499468373021
395,6982413816,-23.800546646118164,61.24238586425781,0.0016788863576948643,0.9999864410163584,0.0,-0.0,-0.005207473805720072,-1.4055715480409958e-09,-1.6579243533598742e-09,2.0980834847250662e-07,-8.01173155196011e-06,2.0081545244465815e-06,1.1263870391964304e-10,-5.218353038571877e-08,3.767724976455611e-08,4.768371127283899e-06,0.0,-0.0,-0.01041499468373021
396,6992413816,-23.800546646118164,61.24238586425781,0.0016788863576948643,0.9999864410163584,0.0,-0.0,-0.005207473805720072,-1.914445046935498e-09,-1.6627803578472822e-09,2.5749204723979346e-07,-9.518186743662227e-06,2.749058694462292e-06,8.368836873495766e-11,-5.0887351221717836e-08,-4.856004487407972e-10,4.7683697630418465e-06,0.0,-0.0,-0.01041499468373021
397,7002413816,-23.800546646118164,61.24238586425781,0.0016788863576948643,0.9999864410163584,0.0,-0.0,-0.005207473805720072,-2.4235755624602007e-09,-1.7226804427394882e-09,3.0517577442878974e-07,-1.102423539123265e-05,3.489957634883467e-06,7.557523357126783e-11,-5.091305155247028e-08,-5.9900084892205996e-09,4.768372491525952e-06,0.0,-0.0,-0.01041499468373021
398,7012413816,-23.800546646118164,61.24238586425781,0.0016788863576948643,0.9999864410163584,0.0,-0.0,-0.005207473805720072,-2.6842879030652966e-09,-1.198204535590719e-09,3.433227391269611e-07,-1.1721263945219107e-05,3.9004694372124504e-06,9.407429696350889e-11,-2.6071234060509596e-08,5.2447589382609294e-08,3.8146963561302982e-06,0.0,-0.0,-0.01041499468373021
399,7022413816,-23.800546646118164,61.24238586425781,0.0016788863576948643,0.9999864410163584,0.0,-0.0,-0.005207473805720072,-2.718039349147716e-09,-6.46827646999526e-10,3.8146970382513246e-07,-1.1728389836207498e-05,3.9815249692765065e-06,6.6116674635186e-11,-3.3751446082419534e-09,5.513768996934232e-08,3.8146963561302982e-06,0.0,-0.0,-0.01041499468373021
400,7032413815,-23.800546646118164,61.24238586425781,0.0016788863576948643,0.9999864410163584,0.0,-0.0,-0.005207473805720072,-2.773299145886199e-09,-5.668944758063788e-10,4.1961669694501325e-07,-1.1731983249774203e-05,4.062515472469386e-06,2.2082792192068545e-11,-5.525979673848269e-09,7.993317119314725e-09,3.8146990846144035e-06,0.0,-0.0,-0.01041499468373021
401,7042413815,-23.800521850585938,61.24238586425781,0.0016799544682726264,0.9999864512798754,1.7243166072570816e-07,8.335786815263419e-07,-0.005205502469192978,0.002727947197854519,4.562496906146407e-05,8.48770127959142e-07,-0.0007063727825880051,-0.008477011695504189,0.022905167192220688,0.2727949917316437,0.004562553483992815,4.291534423828125e-05,3.361802572253633e-07,1.6689299620762925e-06,-0.010411051956960132
402,7052413815,-23.797775268554688,61.24235153198242,0.0016562652308493853,0.9999864552419698,-2.3807473417868185e-08,-3.457103689931524e-05,-0.0052046265420857005,0.2716694176197052,-0.0028240338433533907,-8.106231348392612e-07,0.00434557581320405,0.40424641966819763,0.010032623074948788,26.894145965576172,-0.28696587681770325,-0.0001659393310546875,3.122443713107497e-07,-6.914138515907603e-05,-0.010409300096305564
403,7062413815,-23.792428970336914,61.2422981262207,0.0016178512014448643,0.9999864539251725,-3.358148279678135e-07,-9.173104113954923e-05,-0.0052041859557701966,0.5299671292304993,-0.005528494715690613,-7.438659395120339e-07,0.0069814203307032585,0.6546800136566162,0.005059140734374523,25.829771041870117,-0.2704460918903351,6.675719305349048e-06,2.831502387884284e-07,-0.00018346309340281521,-0.010408418964491776
404,7072413814,-23.784643173217773,61.24222183227539,0.001569785992614925,0.9999864462143196,-7.185037516811743e-07,-0.0001631363802170159,-0.005203919067478039,0.7725940346717834,-0.008054481819272041,-3.9100646631595737e-07,0.008655204437673092,0.8193058371543884,0.0030556218698620796,24.262691497802734,-0.25259870290756226,3.528594606905244e-05,2.6090902663838246e-07,-0.0003262758220627087,-0.010407885291976459
405,7082413814,-23.774723052978516,61.24211883544922,0.001517448341473937,0.9999864312275343,-1.1355141629982608e-06,-0.00024133654481850293,-0.005203759814084078,0.9853704571723938,-0.010273627936840057,-3.7193296975601697e-06,0.009430024772882462,0.8949118852615356,0.0017935492796823382,21.27764129638672,-0.2219146192073822,-0.0003328323073219508,2.407173443039245e-07,-0.0004826783769838904,-0.010407566961002411
406,7092413814,-23.762842178344727,61.24199676513672,0.0014632033417001367,0.9999864090304662,-1.5621144865903454e-06,-0.0003219209053306326,-0.005203663982577257,1.181675910949707,-0.012315773405134678,-2.4509429294994334e-06,0.009699561633169651,0.9239271879196167,0.0010932895820587873,19.630544662475586,-0.20421454310417175,0.00012683868408203125,2.261499756097844e-07,-0.0006438493621483794,-0.010407375546299062
407,7102413814,-23.74979591369629,61.241859436035156,0.0014153289375826716,0.9999863839377859,-1.935791020919752e-06,-0.0003931474513369592,-0.005203592063670696,1.2984687089920044,-0.01353148091584444,-1.5163420812314143e-06,0.008529217913746834,0.8161418437957764,0.0008226975915022194,11.679279327392578,-0.12157075107097626,9.34600830078125e-05,2.2002865714023625e-07,-0.0007863044235925374,-0.01040723198527155
408,7112413814,-23.734813690185547,61.241703033447266,0.0013650512555614114,0.9999863517934172,-2.3300583762076613e-06,-0.0004679502182842459,-0.005203579926944286,1.492088794708252,-0.01554598193615675,-1.7070769899873994e-06,0.008980776183307171,0.8573731184005737,0.00015790843463037163,19.362009048461914,-0.20145010948181152,-1.9073489966103807e-05,2.0997966713089525e-07,-0.0009359120491284296,-0.01040720805843363
409,7122413813,-23.71829605102539,61.24152755737305,0.0013177490327507257,0.9999863163414582,-2.6904653645463007e-06,-0.0005385212052233591,-0.00520356776780685,1.645959734916687,-0.017148097977042198,-1.802444444365392e-06,0.00833283830434084,0.8081540465354919,0.00011681521573336795,15.387094497680664,-0.16021160781383514,-9.536744983051904e-06,2.2360620298477743e-07,-0.001077055880843495,-0.010407184131595712
410,7132413813,-23.70049285888672,61.24134063720703,0.001275024376809597,0.9999862801541528,-3.0200321242878184e-06,-0.0006021184938303032,-0.0052035514467476465,1.7750574350357056,-0.018490010872483253,-3.166198666804121e-06,0.007571433670818806,0.7289936542510986,0.00019162027456331998,12.909770011901855,-0.13419128954410553,-0.00013637542724609375,2.2632790365612234e-07,-0.0012042521865722462,-0.010407151882379386
411,7142413813,-23.681415557861328,61.24114227294922,0.0012363052228465676,0.9999862438005667,-3.3221035825728857e-06,-0.0006598149856096226,-0.005203541369310763,1.9029244184494019,-0.019820569083094597,-4.94956975671812e-06,0.006903164088726044,0.6612513065338135,0.00010512911103432998,12.786698341369629,-0.13305582106113434,-0.00017833711171988398,2.2263357516933758e-07,-0.0013196467745533519,-0.010407132116730671
412,7152413813,-23.661638259887695,61.240936279296875,0.0012056732084602118,0.9999862129367442,-3.5486764259137477e-06,-0.000705113960262711,-0.005203531314265221,1.9740149974822998,-0.020564038306474686,-6.799697530368576e-06,0.00529447989538312,0.5187811255455017,0.00013810439850203693,7.109057903289795,-0.07434692233800888,-0.00018501277372706681,2.4091038409083816e-07,-0.001410245876369599,-0.010407112351081957
413,7162413812,-23.64067268371582,61.24071502685547,0.0011777495965361595,0.9999861825071963,-3.7690303976725627e-06,-0.0007467770135432637,-0.005203566524116316,2.0929057598114014,-0.021802999079227448,-6.780624062230345e-06,0.005011895205825567,0.47767868638038635,-0.0004359306185506284,11.889076232910156,-0.12389607727527618,1.9073468138230965e-06,2.3385135989541602e-07,-0.0014935731700160058,-0.010407183091298412
414,7172413812,-23.61904525756836,61.2404899597168,0.0011561965802684426,0.9999861568442231,-3.9299342023167925e-06,-0.0007788438954435486,-0.005203797331100831,2.1600534915924072,-0.022500092163681984,-5.4645538511977065e-06,0.0037501626648008823,0.367082417011261,-0.002625820692628622,6.714773178100586,-0.06970930844545364,0.00013160702656023204,2.4613226826994105e-07,-0.0015577077586854033,-0.010407644983299972
415,7182413812,-23.59644889831543,61.240257263183594,0.0011375808389857411,0.9999861354901611,-4.068276170045032e-06,-0.0008065000400939039,-0.005203687979486544,2.2571654319763184,-0.023509275168180466,-5.178451374376891e-06,0.003235667012631893,0.3169296383857727,0.0012427608016878366,9.711194038391113,-0.10091830044984818,2.8610247682081535e-05,2.571099318829002e-07,-0.001613020756281076,-0.010407426520866802
416,7192413812,-23.5732364654541,61.24001693725586,0.001123886089771986,0.999986121170287,-4.176510353427659e-06,-0.0008268249438540818,-0.00520324993375293,2.3197970390319824,-0.02416575327515602,-4.425048700795742e-06,0.0024557369761168957,0.23284417390823364,0.005050719249993563,6.263160705566406,-0.06564781069755554,7.534027099609375e-05,2.5144923577472547e-07,-0.0016536711535332883,-0.010406550590539517
417,7202413812,-23.54923439025879,61.239768981933594,0.0011131667997688055,0.9999861064062177,-4.265502422298413e-06,-0.0008426795360092752,-0.005203543748063855,2.3986058235168457,-0.024990297853946686,-4.606246875482611e-06,0.0019628116860985756,0.18172316253185272,-0.003393885213881731,7.880878448486328,-0.08245445787906647,-1.811981746868696e-05,2.389536835387871e-07,-0.0016853808456708328,-0.010407138358514477
418,7212413811,-23.524635314941406,61.2395133972168,0.0011058807140216231,0.9999860934905498,-4.321186100099862e-06,-0.0008533486110514142,-0.005204286981395234,2.459146022796631,-0.025615965947508812,-3.414153979974799e-06,0.0012748725712299347,0.12300137430429459,-0.008501465432345867,6.054019927978516,-0.06256680935621262,0.00011920928955078125,2.3989046859139074e-07,-0.0017067192938679302,-0.010408624943357337
419,7222413811,-23.499364852905273,61.23925018310547,0.0011012267787009478,0.9999860885843305,-4.349409563951697e-06,-0.0008602626961928582,-0.005204091370032474,2.5264461040496826,-0.026315215975046158,-3.0612945920438506e-06,0.0007326624472625554,0.07874874025583267,0.0022527428809553385,6.730008125305176,-0.06992500275373459,3.528593879309483e-05,2.55073608966639e-07,-0.001720547575776139,-0.01040823379157223
420,7232413811,-23.473562240600586,61.238983154296875,0.001099395682103932,0.9999860886958976,-4.35758284147521e-06,-0.0008630045232787031,-0.005203615943229556,2.5801734924316406,-0.0268804170191288,-2.0885468074993696e-06,0.0002606885973364115,0.03130523860454559,0.0054346793331205845,5.372738838195801,-0.05652010440826416,9.72747802734375e-05,2.6644414608721385e-07,-0.0017260312429230452,-0.01040728295983929
421,7242413811,-23.4471435546875,61.23870849609375,0.001099395682103932,0.9999860886958976,-4.35758284147521e-06,-0.0008630045232787031,-0.005203615943229556,2.641813278198242,-0.02752523124217987,-1.0108947208209429e-06,5.994845923851244e-05,4.4039375097781885e-06,-0.0016348520293831825,6.163978576660156,-0.06448142230510712,0.00010776521230582148,2.6644414608721385e-07,-0.0017260312429230452,-0.01040728295983929
422,7252413810,-23.420255661010742,61.23843002319336,0.0011015700874850154,0.9999860892782199,-4.353721040671972e-06,-0.0008596666405655401,-0.005204056529699917,2.6891064643859863,-0.02801612764596939,-1.9168853668816155e-06,-0.00031275401124730706,-0.03874904662370682,-0.003416132414713502,4.729318618774414,-0.049089640378952026,-9.059906733455136e-05,2.401869888791589e-07,-0.0017193555251065707,-0.010408164091653077
423,7262413810,-23.39280128479004,61.23814392089844,0.0011051177280023694,0.9999860935781498,-4.332151685246283e-06,-0.0008543618819047339,-0.005204103891988811,2.745623826980591,-0.02860429883003235,-8.010864007701457e-07,-0.0005602434393949807,-0.06042643263936043,-0.0005289345281198621,5.651736259460449,-0.058817118406295776,0.00011157990229548886,2.2819344168072949e-07,-0.001708745923047075,-0.010408258758707451
424,7272413810,-23.364925384521484,61.23785400390625,0.0011104202130809426,0.9999861003819075,-4.287605290987342e-06,-0.0008464345537028532,-0.005204091961947363,2.7883315086364746,-0.029049450531601906,-5.531310875994677e-07,-0.0009787697345018387,-0.09042166918516159,0.00012529543892014772,4.270768165588379,-0.04451517015695572,2.47955322265625e-05,2.3475546104692143e-07,-0.0016928910119597214,-0.010408234831869532
425,7282413810,-23.336530685424805,61.23755645751953,0.0011165618197992444,0.999986107767043,-4.237687499568331e-06,-0.0008373151870161844,-0.005204148176148065,2.840419292449951,-0.02959273010492325,-6.580352760465757e-07,-0.0011171861551702023,-0.10457395762205124,-0.0006457602721638978,5.208778381347656,-0.05432795733213425,-1.0490419299458154e-05,2.397676856992127e-07,-0.0016746519995332314,-0.01040834718397802
426,7292413810,-23.30774688720703,61.23725891113281,0.0011240387102589011,0.9999861166148786,-4.177519737842375e-06,-0.0008262289055205972,-0.005204220002892831,2.8794374465942383,-0.029997825622558594,-6.103515488575795e-07,-0.0013547784183174372,-0.12737059593200684,-0.0008170311921276152,3.901815414428711,-0.040509551763534546,4.768372491525952e-06,2.448308489812388e-07,-0.0016524791028637202,-0.010408490745005532
427,7302413809,-23.27847671508789,61.23695755004883,0.0011319732293486595,0.9999861260144371,-4.118578586689423e-06,-0.0008143677158503019,-0.005204283514464942,2.9278862476348877,-0.030503984540700912,-1.3732909565078444e-06,-0.0013778936117887497,-0.1353895664215088,-0.0007439122418873012,4.844880104064941,-0.05061589181423187,-7.629393803654239e-05,2.3935838293582397e-07,-0.0016287564232903239,-0.010408617661276232
428,7312413809,-23.24884796142578,61.23664855957031,0.0011409377912059426,0.9999861364274286,-4.044007873093168e-06,-0.000801016491861332,-0.005204354827443155,2.9639086723327637,-0.03088098205626011,-7.438659395120339e-07,-0.0016468123067170382,-0.15254779160022736,-0.0008078302489593625,3.6022424697875977,-0.03769975155591965,6.29425048828125e-05,2.496447955331815e-07,-0.001602053552024426,-0.010408760182006442
429,7322413809,-23.218767166137695,61.23633575439453,0.001150054857134819,0.9999861467560425,-3.976483895841473e-06,-0.0007875459853994918,-0.00520442614617672,3.0093414783477783,-0.031354449689388275,-5.722045557376987e-07,-0.0015912015223875642,-0.15564541518688202,-0.0008118731784634292,4.543280601501465,-0.04734676331281662,1.71661376953125e-05,2.4459252159362905e-07,-0.0015751121926023167,-0.010408902702736653
430,7332413809,-23.1883487701416,61.236019134521484,0.001159935025498271,0.99998615787125,-3.902211176939248e-06,-0.000772823889651643,-0.005204497468907594,3.042937755584717,-0.031704433262348175,-1.2969970839549205e-06,-0.0017258657608181238,-0.16832473874092102,-0.0008137851837091148,3.3596277236938477,-0.03499835729598999,-7.247925532283261e-05,2.4000591784476e-07,-0.001545667617800128,-0.010409045223466865
431,7342413808,-23.157501220703125,61.23569869995117,0.0011697768932208419,0.9999861687327408,-3.825084797640562e-06,-0.0007581613013785966,-0.005204567227382542,3.085862398147583,-0.03215200453996658,-6.675720101156912e-07,-0.0017542012501507998,-0.16756422817707062,-0.0008097360841929913,4.292464256286621,-0.04475712776184082,6.29425048828125e-05,2.417394186234541e-07,-0.0015163420270017198,-0.010409184623305173
432,7352413808,-23.126338958740234,61.23537063598633,0.0011801146902143955,0.9999861798420471,-3.752296815894071e-06,-0.0007428430993094153,-0.005204641674410606,3.1174914836883545,-0.03248176351189613,-1.115798909268051e-06,-0.0017615582328289747,-0.1767996996641159,-0.000849494303110987,3.1629085540771484,-0.03297589719295502,-4.482268923311494e-05,2.2797463891592241e-07,-0.0014857052714928006,-0.01040933338581919
433,7362413808,-23.094770431518555,61.235042572021484,0.0011901473626494408,0.9999861907139798,-3.6661814490638202e-06,-0.0007275845892610047,-0.005204708307737096,3.1583244800567627,-0.032905079424381256,2.7751921152230352e-06,-0.0018788259476423264,-0.1730583757162094,-0.0007446402451023459,4.08329963684082,-0.04233159124851227,0.00038909912109375,2.414697248499434e-07,-0.0014551877600619868,-0.010409466543873694
434,7372413808,-23.062896728515625,61.234710693359375,0.0012007140321657062,0.9999862016059429,-3.5804548933379615e-06,-0.0007120280278812451,-0.005204767140466635,3.188359260559082,-0.03321630135178566,2.4890898657758953e-06,-0.001925151445902884,-0.17965057492256165,-0.0006774376379325986,3.0034780502319336,-0.03112219274044037,-2.8610225854208693e-05,2.510694421770199e-07,-0.0014240741582778075,-0.010409584097468685
435,7382413808,-23.030635833740234,61.234375,0.0012108993250876665,0.9999862120347702,-3.4978908633497975e-06,-0.0006967694339914875,-0.005204828572798234,3.22743821144104,-0.033624205738306046,1.0681152389224735e-06,-0.0018451466457918286,-0.17373868823051453,-0.000703328987583518,3.907895088195801,-0.040790438652038574,-0.00014209745859261602,2.5744589825820064e-07,-0.0013935565168098313,-0.010409706852550181
436,7392413807,-22.99808692932129,61.23403549194336,0.001221351558342576,0.9999862223823393,-3.4174255881628846e-06,-0.0006812724677237682,-0.005204892087734681,3.2561824321746826,-0.03392397612333298,9.91821252682712e-07,-0.001854713074862957,-0.17833052575588226,-0.0007335891714319587,2.874422073364258,-0.029977038502693176,-7.629398169228807e-06,2.571425840366442e-07,-0.0013625621591037576,-0.01040983376882088
437,7402413807,-22.96516227722168,61.23369598388672,0.0012313842307776213,0.999986232098192,-3.3445015246612472e-06,-0.0006663714302969787,-0.005204954561952077,3.2937910556793213,-0.03431590646505356,1.0681152389224735e-06,-0.0017249798402190208,-0.17075660824775696,-0.0007186327711679041,3.760862350463867,-0.039193034172058105,7.629398169228807e-06,2.479552965873403e-07,-0.0013327597220300898,-0.010409958604496979
438,7412413807,-22.93195915222168,61.23334884643555,0.0012415695236995816,0.9999862417427394,-3.263625338326381e-06,-0.0006511725150021955,-0.005205025354016673,3.321493148803711,-0.03460666537284851,1.3351440202313825e-06,-0.0018310719169676304,-0.17389503121376038,-0.0008281375630758703,2.770209312438965,-0.02907589077949524,2.6702877221396193e-05,2.5157824114831706e-07,-0.0013023614546773816,-0.010410100084929888
439,7422413807,-22.898393630981445,61.23299789428711,0.0012512587709352374,0.9999862506984343,-3.1938522933978875e-06,-0.0006366887557018105,-0.005205096667316875,3.357860565185547,-0.0349850207567215,1.4019011587151908e-06,-0.0016562710516154766,-0.1652277708053589,-0.0007780339219607413,3.6367416381835938,-0.037835538387298584,6.675713848380838e-06,2.404364754617527e-07,-0.00127339359611329,-0.0104102426056601
440,7432413806,-22.86455726623535,61.23264694213867,0.0012611007550731301,0.9999862594822606,-3.1199101873220214e-06,-0.0006222050179671543,-0.005205160694794053,3.384725570678711,-0.03526376187801361,1.7547606603329768e-06,-0.0017260434105992317,-0.1673453003168106,-0.0007478033658117056,2.6865005493164062,-0.027874112129211426,3.528594970703125e-05,2.376197549594345e-07,-0.0012444257375491988,-0.0104103705622281
441,7442413806,-22.830368041992188,61.23229217529297,0.0012703704414889216,0.9999862676332906,-3.042458205780451e-06,-0.0006083769545072924,-0.005205229396048777,3.420041084289551,-0.035632893443107605,1.697540255918284e-06,-0.0017070567701011896,-0.1578989326953888,-0.0007750449003651738,3.5315513610839844,-0.036913156509399414,-5.722040441469289e-06,2.48650547769565e-07,-0.0012167691737327811,-0.010410507881471806
442,7452413806,-22.795917510986328,61.23193359375,0.001279754564166069,0.9999862756149946,-2.9682095232314964e-06,-0.0005944892514215553,-0.0052053006994506905,3.4462382793426514,-0.035906609147787094,2.117157009706716e-06,-0.0016815228154882789,-0.1593116819858551,-0.0008133228402584791,2.6197195053100586,-0.027371570467948914,4.1961677197832614e-05,2.5265323830721607e-07,-0.001188993365838258,-0.010410650402202019
443,7462413806,-22.76112174987793,61.231571197509766,0.0012884902535006404,0.9999862829216523,-2.9018986041715108e-06,-0.0005814360315581029,-0.005205371481223749,3.480658531188965,-0.036265596747398376,1.2588500339916209e-06,-0.00153732777107507,-0.14941811561584473,-0.000810813857242465,3.4420251846313477,-0.035898759961128235,-8.583069575252011e-05,2.4946364513039723e-07,-0.0011628865849257254,-0.01041079188263493
444,7472413806,-22.7260684967041,61.231204986572266,0.0012973021948710084,0.9999862900999351,-2.831854258263536e-06,-0.0005683232081923371,-0.005205440699884568,3.5063295364379883,-0.03653280809521675,1.058578504853358e-06,-0.0015861166175454855,-0.1503373086452484,-0.0008046486764214933,2.5671005249023438,-0.026721134781837463,-2.0027153368573636e-05,2.53114813089214e-07,-0.001136660559935087,-0.010410930242175936
445,7482413805,-22.690677642822266,61.2308349609375,0.001305541954934597,0.9999862966615686,-2.7689264678047193e-06,-0.0005560448073323302,-0.00520550627573185,3.539984703063965,-0.03688285872340202,1.4877318790240679e-06,-0.0014487054431810975,-0.14019306004047394,-0.0007497938931919634,3.3655166625976562,-0.03500506281852722,4.2915336962323636e-05,2.5121257512320857e-07,-0.0011121034318892769,-0.01041106131963584
446,7492413805,-22.65503692626953,61.23046112060547,0.0013138198992237449,0.9999863030940885,-2.70955200743001e-06,-0.0005437663878904903,-0.005205567691573954,3.56524920463562,-0.03714478015899658,1.6403197378167533e-06,-0.0014148144982755184,-0.14085224270820618,-0.0007063329103402793,2.5264501571655273,-0.02619214355945587,1.5258785424521193e-05,2.4219583446040255e-07,-0.0010875463038434667,-0.010411184074717335
447,7502413805,-22.619064331054688,61.23008728027344,0.001321334857493639,0.9999863089137973,-2.6544952975207795e-06,-0.0005323820283881323,-0.005205626503056112,3.598249673843384,-0.037488024681806564,4.930496288579889e-06,-0.0013121801894158125,-0.13062402606010437,-0.0006643615779466927,3.300046920776367,-0.03432445228099823,0.0003290176682639867,2.338462168240436e-07,-0.00106477731682059,-0.010411301628312327
448,7512413805,-22.582841873168945,61.22970962524414,0.0013292311923578382,0.999986314643077,-2.594609748338511e-06,-0.0005209381036247534,-0.005205683751160117,3.6232125759124756,-0.03774796053767204,4.5585629777633585e-06,-0.0013696206733584404,-0.1311701089143753,-0.0006726704887114465,2.4962902069091797,-0.02599358558654785,-3.7193331081653014e-05,2.345296897378783e-07,-0.001041889150738189,-0.010411416061015416
449,7522413804,-22.546293258666992,61.22932815551758,0.0013361357850953937,0.9999863198288313,-2.5296840406454863e-06,-0.0005103882550305203,-0.005205732668902691,3.6556506156921387,-0.03808307647705078,6.771087441848067e-07,-0.0013749575009569526,-0.1210169643163681,-0.0005304442020133138,3.2438039779663086,-0.03351159393787384,-0.0003881454176735133,2.545908904467767e-07,-0.0010207890606601404,-0.010411513848961692
450,7532413804,-22.509496688842773,61.22894287109375,0.0013433074345812201,0.999986324957411,-2.466928045464308e-06,-0.0004997788372645705,-0.005205776906408344,3.680406332015991,-0.03834008052945137,3.547668484316091e-06,-0.0013511425349861383,-0.12146182358264923,-0.0005033823545090854,2.475571632385254,-0.0257004052400589,0.00028705596923828125,2.696857731774858e-07,-0.0009995698565411486,-0.010411602274232261
451,7542413804,-22.472379684448242,61.22855758666992,0.0013499069027602673,0.9999863295817155,-2.4123020302384636e-06,-0.0004900634271277318,-0.005205812300382304,3.712371349334717,-0.03867163881659508,3.166198666804121e-06,-0.0012071856763213873,-0.11146625876426697,-0.0004341838648542762,3.1965017318725586,-0.03315582871437073,-3.8146979932207614e-05,2.7781846114293264e-07,-0.0009801387284265092,-0.010411673014448716
452,7552413804,-22.43501853942871,61.22816848754883,0.0013565063709393144,0.9999863341050366,-2.3620540002101305e-06,-0.000480288403824052,-0.005205854458192275,3.7370147705078125,-0.03892869874835014,2.57492069977161e-06,-0.0011584864696487784,-0.11194586008787155,-0.00046841127914376557,2.4643421173095703,-0.025705993175506592,-5.912779670325108e-05,2.765797428786781e-07,-0.0009605884212523455,-0.010411757278530082
453,7562413804,-22.397340774536133,61.22777557373047,0.001362495357170701,0.9999863381560951,-2.311666507159709e-06,-0.0004713478408874778,-0.005205893490370932,3.768583059310913,-0.03925735503435135,1.7356871921947459e-06,-0.0011079394025728106,-0.10215718299150467,-0.00044796906877309084,3.1568288803100586,-0.032865628600120544,-8.392335439566523e-05,2.843035884173714e-07,-0.0009427070110230097,-0.010411835300827644
454,7572413803,-22.359418869018555,61.22738265991211,0.0013685226440429688,0.9999863421520516,-2.26517126493046e-06,-0.00046234766731962886,-0.005205933044439752,3.7930757999420166,-0.03951190039515495,1.554489131194714e-06,-0.001067379955202341,-0.10288801044225693,-0.00043637907947413623,2.4492740631103516,-0.025454536080360413,-1.811980655475054e-05,2.8362146476608816e-07,-0.0009247064217341496,-0.010411914363422505
455,7582413803,-22.321184158325195,61.22698211669922,0.001374053885228932,0.9999863456639784,-2.227473856137699e-06,-0.0004542415304475933,-0.0052059720775833275,3.8241729736328125,-0.03983694314956665,2.3365021206700476e-06,-0.0009219268686138093,-0.09347854554653168,-0.0004683760635089129,3.10971736907959,-0.03250427544116974,7.820130122127011e-05,2.7465067839841535e-07,-0.0009084939734682231,-0.010411992385720065
456,7592413803,-22.282705307006836,61.22658157348633,0.0013795852428302169,0.9999863492062182,-2.1846925509484244e-06,-0.00044595658399856225,-0.005206007988050979,3.8483550548553467,-0.04008723050355911,1.8787383169183158e-06,-0.0009814711520448327,-0.09462752938270569,-0.00041460333159193397,2.418208122253418,-0.025028735399246216,-4.577638173941523e-05,2.739817298991046e-07,-0.0008919238579865612,-0.010412064166233822
457,7602413803,-22.24392318725586,61.22617721557617,0.0013846206711605191,0.9999863523169571,-2.141871962259942e-06,-0.00043850612993361597,-0.005206043374075264,3.8789308071136475,-0.04040578752756119,1.115798909268051e-06,-0.0009393359650857747,-0.08575735241174698,-0.00040060130413621664,3.057575225830078,-0.03185570240020752,-7.629393803654239e-05,2.820785116070069e-07,-0.0008770227044683085,-0.010412134906450278
458,7612413802,-22.204898834228516,61.22576904296875,0.001389732351526618,0.9999863554262629,-2.10261701943674e-06,-0.00043093644410796685,-0.005206078241818704,3.902927875518799,-0.04065532609820366,1.659393319641822e-06,-0.0009053056710399687,-0.08709640800952911,-0.0003936947032343596,2.3997068405151367,-0.02495385706424713,5.435943967313506e-05,2.8180113497379167e-07,-0.0008618831278124259,-0.010412204606369432
459,7622413802,-22.16557502746582,61.22536087036133,0.0013943481026217341,0.999986358235687,-2.061679659522667e-06,-0.0004240224232159739,-0.005206106343723881,3.9330384731292725,-0.04096778854727745,1.3828276905769599e-06,-0.0008760453201830387,-0.07868096232414246,-0.00032874796306714416,3.0110597610473633,-0.03124624490737915,-2.7656562451738864e-05,2.9170869052039107e-07,-0.0008480548459042172,-0.010412260782423676
460,7632413802,-22.126012802124023,61.22494888305664,0.0013990402221679688,0.9999863609977773,-2.02536869120653e-06,-0.0004170487878865775,-0.0052061391289194145,3.95690655708313,-0.0412171445786953,1.163482693300466e-06,-0.0008346363320015371,-0.08013525605201721,-0.000372947717551142,2.386808395385742,-0.024935603141784668,-2.1934500182396732e-05,2.917459936615182e-07,-0.0008341073849364841,-0.010412326321153628
461,7642413802,-22.086151123046875,61.22453308105469,0.001403274480253458,0.9999863634747657,-1.9923213065436346e-06,-0.00041067116890782565,-0.005206170352143564,3.986600875854492,-0.04152639955282211,1.3828276905769599e-06,-0.0007495278841815889,-0.07213947921991348,-0.0003552653652150184,2.9694318771362305,-0.03092549741268158,2.1934500182396732e-05,2.9145995000061984e-07,-0.0008213519746383192,-0.010412388738991675
