frame,timestamp,x,y,z,qw,qx,qy,qz,v_x (m/s),v_y (m/s),v_z (m/s),w_x (rad/s),w_y (rad/s),w_z (rad/s),acc x (m/s^2),acc y (m/s^2),acc z (m/s^2)
197,0.0,0.0,0.0,0.0,1.0,0.0,0.0,0.0,0.0,0.0,0.0,-0.002153,0.020744,0.075806,-0.013337,0.103464,0.093086
198,10000000.0,0.0,0.0,0.0,1.0,0.0,0.0,0.0,0.0,0.0,0.0,-0.002153,0.020744,0.075806,-0.013337,0.103464,0.093086
199,20000000.0,0.0,0.0,0.0,1.0,0.0,0.0,0.0,0.0,0.0,0.0,-0.002153,0.020744,0.075806,-0.013337,0.103464,0.093086
200,30000000.0,0.0,0.0,0.0,1.0,0.0,0.0,0.0,0.0,0.0,0.0,-0.002153,0.020744,0.075806,-0.013337,0.103464,0.093086
201,40000000.0,0.0,0.0,0.0,1.0,0.0,0.0,0.0,0.0,0.0,0.0,-0.002153,0.020744,0.075806,-0.013337,0.103464,0.093086
202,50000000.0,0.0,0.0,0.0,1.0,0.0,0.0,0.0,0.0,0.0,0.0,-0.002153,0.020744,0.075806,-0.013337,0.103464,0.093086
203,60000000.0,0.0,0.0,0.0,1.0,0.0,0.0,0.0,0.0,0.0,0.0,-0.002153,0.020744,0.075806,-0.013337,0.103464,0.093086
204,70000000.0,0.0,0.0,0.0,1.0,0.0,0.0,0.0,0.0,0.0,0.0,-0.002153,0.020744,0.075806,-0.013337,0.103464,0.093086
205,80000000.0,0.0,0.0,0.0,1.0,0.0,0.0,0.0,0.0,0.0,0.0,-0.002153,0.020744,0.075806,-0.013337,0.103464,0.093086
206,90000000.0,0.0,0.0,0.0,1.0,0.0,0.0,0.0,0.0,0.0,0.0,-0.002153,0.020744,0.075806,-0.013337,0.103464,0.093086
207,100000000.0,0.0,0.0,0.0,1.0,0.0,0.0,0.0,0.0,0.0,0.0,-0.002153,0.020744,0.075806,-0.013337,0.103464,0.093086
208,110000000.0,0.0,0.0,0.0,1.0,0.0,0.0,0.0,0.0,0.0,0.0,-0.002153,0.020744,0.075806,-0.013337,0.103464,0.093086
209,120000000.0,0.0,0.0,0.0,1.0,0.0,0.0,0.0,0.0,0.0,0.0,-0.002153,0.020744,0.075806,-0.013337,0.103464,0.093086
210,130000000.0,0.0,0.0,0.0,1.0,0.0,0.0,0.0,0.0,0.0,0.0,-0.002153,0.020744,0.075806,-0.013337,0.103464,0.093086
211,140000000.0,0.0,0.0,0.0,1.0,0.0,0.0,0.0,0.0,0.0,0.0,-0.002153,0.020744,0.075806,-0.013337,0.103464,0.093086
212,150000000.0,0.0,0.0,0.0,1.0,0.0,0.0,0.0,0.0,0.0,0.0,-0.002153,0.020744,0.075806,-0.013337,0.103464,0.093086
213,160000000.0,0.0,0.0,0.0,1.0,0.0,0.0,0.0,0.0,0.0,0.0,-0.002153,0.020744,0.075806,-0.013337,0.103464,0.093086
214,170000000.0,0.0,0.0,0.0,1.0,0.0,0.0,0.0,0.0,0.0,0.0,-0.002153,0.020744,0.075806,-0.013337,0.103464,0.093086
215,180000000.0,0.0,0.0,0.0,1.0,0.0,0.0,0.0,0.0,0.0,0.0,-0.002153,0.020744,0.075806,-0.013337,0.103464,0.093086
216,190000000.0,0.0,0.0,0.0,1.0,0.0,0.0,0.0,0.0,0.0,0.0,-0.002153,0.020744,0.075806,-0.013337,0.103464,0.093086
217,200000000.0,0.0,0.0,0.0,1.0,0.0,0.0,0.0,0.0,0.0,0.0,-0.002153,0.020744,0.075806,-0.013337,0.103464,0.093086
218,210000000.0,0.0,0.0,0.0,1.0,0.0,0.0,0.0,0.0,0.0,0.0,-0.002153,0.020744,0.075806,-0.013337,0.103464,0.093086
219,220000000.0,0.0,0.0,0.0,1.0,0.0,0.0,0.0,0.0,0.0,0.0,-0.002153,0.020744,0.075806,-0.013337,0.103464,0.093086
220,230000000.0,0.0,0.0,0.0,1.0,0.0,0.0,0.0,0.0,0.0,0.0,-0.002153,0.020744,0.075806,-0.013337,0.103464,0.093086
221,240000000.0,0.0,0.0,0.0,1.0,0.0,0.0,0.0,0.0,0.0,0.0,-0.002153,0.020744,0.075806,-0.013337,0.103464,0.093086
222,250000000.0,0.0,0.0,0.0,1.0,0.0,0.0,0.0,0.0,0.0,0.0,-0.002153,0.020744,0.075806,-0.013337,0.103464,0.093086
223,260000000.0,0.0,0.0,0.0,1.0,0.0,0.0,0.0,0.0,0.0,0.0,-0.002153,0.020744,0.075806,-0.013337,0.103464,0.093086
224,270000000.0,1.42108547152e-14,6.22177030891e-05,7.1054273576e-15,1.0,0.0,0.0,0.0,-4.82688335524e-07,-0.00622082687914,9.97110127712e-09,-0.002153,0.020744,0.075806,-0.013337,0.103464,0.093086
225,280000000.0,-7.1054273576e-15,0.000114898663011,-7.1054273576e-15,1.0,0.0,0.0,0.0,-2.71232494242e-07,-0.00526638980955,1.13952882677e-08,-0.002153,0.020744,0.075806,-0.013337,0.103464,0.093086
226,290000000.0,7.1054273576e-15,0.000159187242389,0.0,1.0,0.0,0.0,0.0,-3.81435512509e-07,-0.00442978832871,-5.18786347258e-09,-0.002153,0.020744,0.075806,-0.013337,0.103464,0.093086
227,300000000.0,-7.1054273576e-15,0.000196189852431,0.0,1.0,0.0,0.0,0.0,-3.16306795867e-07,-0.00370200141333,-1.85938162651e-08,-0.002153,0.020744,0.075806,-0.013337,0.103464,0.093086
228,310000000.0,7.1054273576e-15,0.000226898118854,0.0,1.0,0.0,0.0,0.0,-2.56071274407e-07,-0.00306912418455,-2.09222883528e-09,-0.002153,0.020744,0.075806,-0.013337,0.103464,0.093086
229,320000000.0,-7.1054273576e-15,0.000252075144083,0.0,1.0,0.0,0.0,0.0,-1.94908253093e-07,-0.0025176142808,1.26232437832e-08,-0.002153,0.020744,0.075806,-0.013337,0.103464,0.093086
230,330000000.0,0.0,0.000272483797737,0.0,1.0,0.0,0.0,0.0,-5.78323984257e-08,-0.00203976617195,-2.29531904638e-09,-0.002153,0.020744,0.075806,-0.013337,0.103464,0.093086
231,340000000.0,0.0,0.000288772513159,-3.5527136788e-15,1.0,0.0,0.0,0.0,-3.08920498071e-08,-0.00162791251205,-1.42567524485e-09,-0.002153,0.020744,0.075806,-0.013337,0.103464,0.093086
232,350000000.0,0.0,0.000301475520242,-3.5527136788e-15,1.0,0.0,0.0,0.0,-4.13730276705e-08,-0.00127209664788,-1.76727998923e-09,-0.002153,0.020744,0.075806,-0.013337,0.103464,0.093086
233,360000000.0,0.0,0.000311126699668,0.0,1.0,0.0,0.0,0.0,-1.03639852256e-08,-0.000966682389844,-1.81229353757e-09,-0.002153,0.020744,0.075806,-0.013337,0.103464,0.093086
234,370000000.0,-7.1054273576e-15,0.000318183912892,3.5527136788e-15,1.0,0.0,0.0,0.0,2.36522912367e-09,-0.000706367485691,-1.93820404171e-09,-0.002153,0.020744,0.075806,-0.013337,0.103464,0.093086
235,380000000.0,0.0,0.00032302853651,-3.5527136788e-15,1.0,0.0,0.0,0.0,2.25857821334e-08,-0.000485382071929,-2.09801354078e-09,-0.002153,0.020744,0.075806,-0.013337,0.103464,0.093086
236,390000000.0,0.0,0.00032600399572,0.0,1.0,0.0,0.0,0.0,-1.0599626421e-07,-0.000296134938253,-3.57797169675e-09,-0.002153,0.020744,0.075806,-0.013337,0.103464,0.093086
237,400000000.0,0.0,0.000327377230853,0.0,1.0,0.0,0.0,0.0,4.39152607612e-08,-0.000136613845825,-2.41354425337e-09,-0.002153,0.020744,0.075806,-0.013337,0.103464,0.093086
238,410000000.0,0.0,0.000327377230853,0.0,1.0,0.0,0.0,0.0,-4.58705322615e-08,-3.09944152832e-06,-3.46206530111e-09,-0.002153,0.020744,0.075806,-0.013337,0.103464,0.093086
239,420000000.0,0.0,0.000326347304508,3.5527136788e-15,1.0,0.0,0.0,0.0,7.50802868765e-08,0.000106439591036,1.26496821906e-08,-0.002153,0.020744,0.075806,-0.013337,0.103464,0.093086
240,430000000.0,7.1054273576e-15,0.000324363703839,0.0,1.0,0.0,0.0,0.0,5.78982621846e-08,0.000197439192561,-3.92017573955e-09,-0.002153,0.020744,0.075806,-0.013337,0.103464,0.093086
241,440000000.0,0.0,0.000321655184958,-7.1054273576e-15,1.0,0.0,0.0,0.0,1.1682304546e-07,0.000271062832326,1.25203856172e-08,-0.002153,0.020744,0.075806,-0.013337,0.103464,0.093086
242,450000000.0,0.0,0.000318336416964,-7.1054273576e-15,1.0,0.0,0.0,0.0,3.67146490987e-08,0.000330533977831,-4.55285764642e-09,-0.002153,0.020744,0.075806,-0.013337,0.103464,0.093086
243,460000000.0,0.0,0.000314559903924,0.0,1.0,0.0,0.0,0.0,4.93214571406e-08,0.000377016054699,-3.77137077123e-09,-0.002153,0.020744,0.075806,-0.013337,0.103464,0.093086
244,470000000.0,-7.1054273576e-15,0.000310440082103,0.0,1.0,0.0,0.0,0.0,1.05057829103e-07,0.00041199682164,-3.5304807966e-09,-0.002153,0.020744,0.075806,-0.013337,0.103464,0.093086
245,480000000.0,7.1054273576e-15,0.000306053087112,-7.1054273576e-15,1.0,0.0,0.0,0.0,-4.17364276473e-08,0.000439548486611,-5.11764186573e-09,-0.002153,0.020744,0.075806,-0.013337,0.103464,0.093086
246,490000000.0,0.0,0.000301475520242,-3.5527136788e-15,1.0,0.0,0.0,0.0,1.4838931861e-07,0.000457258225651,-3.45561046433e-09,-0.002153,0.020744,0.075806,-0.013337,0.103464,0.093086
247,500000000.0,0.0,0.000296783400696,0.0,1.0,0.0,0.0,0.0,2.3312876074e-09,0.000468940736027,1.01282395804e-08,-0.002153,0.020744,0.075806,-0.013337,0.103464,0.093086
248,510000000.0,1.42108547152e-14,0.000292053213343,0.0,1.0,0.0,0.0,0.0,-5.75390686208e-08,0.000474262225907,-6.55522480736e-09,-0.002153,0.020744,0.075806,-0.013337,0.103464,0.093086
249,520000000.0,7.1054273576e-15,0.000287284841761,0.0,1.0,0.0,0.0,0.0,-8.36000157989e-09,0.000476350774989,-5.14353137851e-09,-0.002153,0.020744,0.075806,-0.013337,0.103464,0.093086
250,530000000.0,0.0,0.000282554537986,3.5527136788e-15,1.0,0.0,0.0,0.0,3.60153018519e-09,0.000474157335702,-5.06998532035e-09,-0.002153,0.020744,0.075806,-0.013337,0.103464,0.093086
251,540000000.0,7.1054273576e-15,0.000277862534858,0.0,1.0,0.0,0.0,0.0,-8.19456786871e-08,0.000467681878945,-5.81344661291e-09,-0.002153,0.020744,0.075806,-0.013337,0.103464,0.093086
252,550000000.0,0.0,0.00027328485157,0.0,1.0,0.0,0.0,0.0,5.04148545133e-09,0.000459070201032,2.54826808544e-08,-0.002153,0.020744,0.075806,-0.013337,0.103464,0.093086
253,560000000.0,-1.42108547152e-14,0.000268821720962,3.5527136788e-15,1.0,0.0,0.0,0.0,9.14136109031e-08,0.000448007573141,-5.87300963414e-09,-0.002153,0.020744,0.075806,-0.013337,0.103464,0.093086
254,570000000.0,0.0,0.000264472910203,0.0,1.0,0.0,0.0,0.0,2.07651638107e-07,0.000435028079664,-3.03856650941e-09,-0.002153,0.020744,0.075806,-0.013337,0.103464,0.093086
255,580000000.0,0.0,0.000260238652121,7.1054273576e-15,1.0,0.0,0.0,0.0,4.30779714122e-08,0.000422096229158,1.07949125195e-08,-0.002153,0.020744,0.075806,-0.013337,0.103464,0.093086
256,590000000.0,7.1054273576e-15,0.000256195082329,0.0,1.0,0.0,0.0,0.0,4.19918997352e-08,0.000406217557611,-5.40468692012e-09,-0.002153,0.020744,0.075806,-0.013337,0.103464,0.093086
257,600000000.0,0.0,0.000252265948799,-7.1054273576e-15,1.0,0.0,0.0,0.0,-5.61378712405e-08,0.000391368870623,-5.78796521816e-09,-0.002153,0.020744,0.075806,-0.013337,0.103464,0.093086
258,610000000.0,7.1054273576e-15,0.000248527503569,0.0,1.0,0.0,0.0,0.0,1.70560987556e-08,0.00037553787115,1.01193622371e-08,-0.002153,0.020744,0.075806,-0.013337,0.103464,0.093086
259,620000000.0,0.0,0.000244941678833,3.5527136788e-15,1.0,0.0,0.0,0.0,1.88710713722e-09,0.000360431673471,9.03601105059e-09,-0.002153,0.020744,0.075806,-0.013337,0.103464,0.093086
260,630000000.0,0.0,0.00024150847457,0.0,1.0,0.0,0.0,0.0,-4.08067107882e-10,0.00034294129,-2.11585380327e-08,-0.002153,0.020744,0.075806,-0.013337,0.103464,0.093086
261,640000000.0,7.1054273576e-15,0.000238227774386,0.0,1.0,0.0,0.0,0.0,3.68194932321e-08,0.000326967245201,-3.91899224178e-09,-0.002153,0.020744,0.075806,-0.013337,0.103464,0.093086
262,650000000.0,0.0,0.000235137878914,0.0,1.0,0.0,0.0,0.0,7.43932337954e-09,0.000309915543767,-5.28673105288e-09,-0.002153,0.020744,0.075806,-0.013337,0.103464,0.093086
263,660000000.0,-7.1054273576e-15,0.000232200603929,0.0,1.0,0.0,0.0,0.0,-7.14930692425e-08,0.00029511449975,2.43094451236e-08,-0.002153,0.020744,0.075806,-0.013337,0.103464,0.093086
264,670000000.0,7.1054273576e-15,0.000229415833022,0.0,1.0,0.0,0.0,0.0,6.09534254181e-08,0.000279378873529,-6.58282939264e-09,-0.002153,0.020744,0.075806,-0.013337,0.103464,0.093086
265,680000000.0,7.1054273576e-15,0.000229415833022,0.0,1.0,0.0,0.0,0.0,0.0,0.0,0.0,-0.002153,0.020744,0.075806,-0.013337,0.103464,0.093086
266,690000000.0,7.1054273576e-15,0.000229415833022,0.0,1.0,0.0,0.0,0.0,3.69266857092e-08,6.46686530672e-05,-1.45827181441e-08,-0.002153,0.020744,0.075806,-0.013337,0.103464,0.093086
267,700000000.0,0.0,0.000227928161625,0.0,1.0,0.0,0.0,0.0,-3.0176821042e-08,8.58211496961e-05,1.43729605996e-09,-0.002153,0.020744,0.075806,-0.013337,0.103464,0.093086
268,710000000.0,7.1054273576e-15,0.000226898118854,0.0,1.0,0.0,0.0,0.0,-5.14705078558e-09,0.000102205274743,1.26114452215e-09,-0.002153,0.020744,0.075806,-0.013337,0.103464,0.093086
269,720000000.0,0.0,0.00022575375624,-3.5527136788e-15,1.0,0.0,0.0,0.0,3.6264044212e-08,0.000115137096145,-1.32973871914e-08,-0.002153,0.020744,0.075806,-0.013337,0.103464,0.093086
270,730000000.0,0.0,0.000224494957358,0.0,1.0,0.0,0.0,0.0,7.08832414986e-09,0.000125131598907,-1.22400249935e-08,-0.002153,0.020744,0.075806,-0.013337,0.103464,0.093086
271,740000000.0,0.0,0.000223159790039,-3.5527136788e-15,1.0,0.0,0.0,0.0,-3.49467477179e-08,0.000132112501888,3.12152548257e-09,-0.002153,0.020744,0.075806,-0.013337,0.103464,0.093086
272,750000000.0,7.1054273576e-15,0.000221786438487,7.1054273576e-15,1.0,0.0,0.0,0.0,-4.40938947577e-08,0.000137891765917,1.7898662108e-08,-0.002153,0.020744,0.075806,-0.013337,0.103464,0.093086
273,760000000.0,0.0,0.000220375019119,0.0,1.0,0.0,0.0,0.0,6.38983834733e-08,0.000139274590765,-1.21759420324e-08,-0.002153,0.020744,0.075806,-0.013337,0.103464,0.093086
274,770000000.0,-7.1054273576e-15,0.000218963599757,0.0,1.0,0.0,0.0,0.0,-2.58582257828e-08,0.000141048425576,4.22832258098e-09,-0.002153,0.020744,0.075806,-0.013337,0.103464,0.093086
275,780000000.0,7.1054273576e-15,0.000217552180398,0.0,1.0,0.0,0.0,0.0,-6.91536357067e-08,0.000141229626024,3.18167292514e-09,-0.002153,0.020744,0.075806,-0.013337,0.103464,0.093086
276,790000000.0,0.0,0.000216140761037,0.0,1.0,0.0,0.0,0.0,4.94857381739e-08,0.00014015196939,4.63022420406e-09,-0.002153,0.020744,0.075806,-0.013337,0.103464,0.093086
277,800000000.0,-7.1054273576e-15,0.000214767409489,7.1054273576e-15,1.0,0.0,0.0,0.0,4.36559446371e-08,0.000137481692946,-1.02724584394e-08,-0.002153,0.020744,0.075806,-0.013337,0.103464,0.093086
278,810000000.0,0.0,0.000213394174349,-7.1054273576e-15,1.0,0.0,0.0,0.0,-2.93564923481e-08,0.000135650625452,5.46227596489e-09,-0.002153,0.020744,0.075806,-0.013337,0.103464,0.093086
279,820000000.0,0.0,0.000212059007026,0.0,1.0,0.0,0.0,0.0,-5.60001556238e-09,0.000133047098643,5.30453148076e-09,-0.002153,0.020744,0.075806,-0.013337,0.103464,0.093086
280,830000000.0,7.1054273576e-15,0.000210800091732,0.0,1.0,0.0,0.0,0.0,-1.70343128492e-09,0.000127763749333,5.56640422647e-09,-0.002153,0.020744,0.075806,-0.013337,0.103464,0.093086
281,840000000.0,-7.1054273576e-15,0.000209541292858,-7.1054273576e-15,1.0,0.0,0.0,0.0,-1.06954023416e-09,0.000124273297843,5.96079008377e-09,-0.002153,0.020744,0.075806,-0.013337,0.103464,0.093086
282,850000000.0,0.0,0.000208358746015,-3.5527136788e-15,1.0,0.0,0.0,0.0,3.62778571628e-08,0.000120077129395,-8.58465742935e-09,-0.002153,0.020744,0.075806,-0.013337,0.103464,0.093086
283,860000000.0,0.0,0.000207214266997,0.0,1.0,0.0,0.0,0.0,7.17264780903e-09,0.000114383692562,-7.79453745989e-09,-0.002153,0.020744,0.075806,-0.013337,0.103464,0.093086
284,870000000.0,0.0,0.000206108088598,7.1054273576e-15,1.0,0.0,0.0,0.0,-3.37514656223e-08,0.000110149383545,6.98208424413e-09,-0.002153,0.020744,0.075806,-0.013337,0.103464,0.093086
285,880000000.0,7.1054273576e-15,0.000205039978027,0.0,1.0,0.0,0.0,0.0,-5.75697622907e-09,0.000105352402898,6.56652199285e-09,-0.002153,0.020744,0.075806,-0.013337,0.103464,0.093086
286,890000000.0,7.1054273576e-15,0.000205039978027,0.0,1.0,0.0,0.0,0.0,3.58489309349e-08,0.000100021359685,-7.92864973673e-09,-0.002153,0.020744,0.075806,-0.013337,0.103464,0.093086
287,900000000.0,0.0,0.000203094445162,-3.5527136788e-15,1.0,0.0,0.0,0.0,-2.9866779272e-08,9.58824166446e-05,7.56982299067e-09,-0.002153,0.020744,0.075806,-0.013337,0.103464,0.093086
288,910000000.0,0.0,0.000203094445162,-3.5527136788e-15,1.0,0.0,0.0,0.0,-6.95517030636e-08,9.05704509933e-05,6.24396534478e-09,-0.002153,0.020744,0.075806,-0.013337,0.103464,0.093086
289,920000000.0,-1.42108547152e-14,0.000201301532794,0.0,1.0,0.0,0.0,0.0,8.78921184722e-08,8.63265959197e-05,-7.58544338452e-09,-0.002153,0.020744,0.075806,-0.013337,0.103464,0.093086
290,930000000.0,-1.42108547152e-14,0.000201301532794,0.0,1.0,0.0,0.0,0.0,-2.2798202437e-08,8.11958307168e-05,7.79036746225e-09,-0.002153,0.020744,0.075806,-0.013337,0.103464,0.093086
291,940000000.0,0.0,0.000199737492945,0.0,1.0,0.0,0.0,0.0,-3.18645776431e-09,7.71999330027e-05,6.78766109986e-09,-0.002153,0.020744,0.075806,-0.013337,0.103464,0.093086
292,950000000.0,0.0,0.000199737492945,0.0,1.0,0.0,0.0,0.0,-2.83286087921e-08,7.37094887882e-05,-8.55794279885e-09,-0.002153,0.020744,0.075806,-0.013337,0.103464,0.093086
293,960000000.0,-7.1054273576e-15,0.000198326073583,0.0,1.0,0.0,0.0,0.0,5.80927128624e-08,6.91604582244e-05,-6.45372599804e-09,-0.002153,0.020744,0.075806,-0.013337,0.103464,0.093086
294,970000000.0,-7.1054273576e-15,0.000198326073583,0.0,1.0,0.0,0.0,0.0,-2.58513814799e-08,6.57558412058e-05,7.62419460899e-09,-0.002153,0.020744,0.075806,-0.013337,0.103464,0.093086
295,980000000.0,0.0,0.000197067274708,-3.5527136788e-15,1.0,0.0,0.0,0.0,-3.98554655945e-09,6.22081715846e-05,6.92653623348e-09,-0.002153,0.020744,0.075806,-0.013337,0.103464,0.093086
296,990000000.0,0.0,0.000197067274708,-3.5527136788e-15,1.0,0.0,0.0,0.0,-8.65951754747e-10,5.81073763897e-05,7.09280456591e-09,-0.002153,0.020744,0.075806,-0.013337,0.103464,0.093086
297,1000000000.0,7.1054273576e-15,0.000195960979905,-3.5527136788e-15,1.0,0.0,0.0,0.0,3.70422661433e-08,5.38921340194e-05,-7.7359878503e-09,-0.002153,0.020744,0.075806,-0.013337,0.103464,0.093086
298,1010000000.0,7.1054273576e-15,0.000195960979905,-3.5527136788e-15,1.0,0.0,0.0,0.0,7.92052556875e-09,5.17082189617e-05,-7.14930648015e-09,-0.002153,0.020744,0.075806,-0.013337,0.103464,0.093086
299,1020000000.0,7.1054273576e-15,0.000195960979905,-3.5527136788e-15,1.0,0.0,0.0,0.0,-3.45481687702e-08,4.71878047392e-05,7.4676371753e-09,-0.002153,0.020744,0.075806,-0.013337,0.103464,0.093086
300,1030000000.0,-7.1054273576e-15,0.000194511376321,0.0,1.0,0.0,0.0,0.0,-5.59728707827e-09,4.41265110567e-05,6.4821965573e-09,-0.002153,0.020744,0.075806,-0.013337,0.103464,0.093086
301,1040000000.0,-7.1054273576e-15,0.000194511376321,0.0,1.0,0.0,0.0,0.0,-3.09274245103e-10,4.21333315899e-05,6.33029051401e-09,-0.002153,0.020744,0.075806,-0.013337,0.103464,0.093086
302,1050000000.0,-7.1054273576e-15,0.000194511376321,0.0,1.0,0.0,0.0,0.0,3.78753419739e-08,3.87096406484e-05,-8.63344595813e-09,-0.002153,0.020744,0.075806,-0.013337,0.103464,0.093086
303,1060000000.0,0.0,0.000193328829475,3.5527136788e-15,1.0,0.0,0.0,0.0,-5.81229215868e-08,3.67259963241e-05,-8.89119711189e-09,-0.002153,0.020744,0.075806,-0.013337,0.103464,0.093086
304,1070000000.0,0.0,0.000193328829475,3.5527136788e-15,1.0,0.0,0.0,0.0,1.78208789947e-08,3.39603429893e-05,6.75715083887e-09,-0.002153,0.020744,0.075806,-0.013337,0.103464,0.093086
305,1080000000.0,0.0,0.000193328829475,3.5527136788e-15,1.0,0.0,0.0,0.0,4.05827940142e-08,3.10134892061e-05,-9.38966149277e-09,-0.002153,0.020744,0.075806,-0.013337,0.103464,0.093086
306,1090000000.0,0.0,0.000193328829475,3.5527136788e-15,1.0,0.0,0.0,0.0,-5.61437012436e-08,2.95543668472e-05,-9.32231625227e-09,-0.002153,0.020744,0.075806,-0.013337,0.103464,0.093086
307,1100000000.0,0.0,0.000193328829475,3.5527136788e-15,1.0,0.0,0.0,0.0,0.0,0.0,0.0,-0.002153,0.020744,0.075806,-0.013337,0.103464,0.093086
308,1110000000.0,0.0,0.000192298903126,0.0,1.0,0.0,0.0,0.0,-2.98606916971e-10,6.32286037217e-06,4.45067649403e-10,-0.002153,0.020744,0.075806,-0.013337,0.103464,0.093086
309,1120000000.0,0.0,0.000192298903126,0.0,1.0,0.0,0.0,0.0,2.96208418904e-10,8.21113553684e-06,4.40117914336e-10,-0.002153,0.020744,0.075806,-0.013337,0.103464,0.093086
310,1130000000.0,0.0,0.000192298903126,0.0,1.0,0.0,0.0,0.0,-2.60187177359e-10,1.00517272585e-05,7.58742513264e-10,-0.002153,0.020744,0.075806,-0.013337,0.103464,0.093086
311,1140000000.0,0.0,0.000192298903126,0.0,1.0,0.0,0.0,0.0,-3.71973172264e-08,1.13582609629e-05,1.56449075917e-08,-0.002153,0.020744,0.075806,-0.013337,0.103464,0.093086
312,1150000000.0,0.0,0.000192298903126,0.0,1.0,0.0,0.0,0.0,2.94175706017e-08,1.19400019685e-05,4.52936299579e-10,-0.002153,0.020744,0.075806,-0.013337,0.103464,0.093086
313,1160000000.0,0.0,0.000192298903126,0.0,1.0,0.0,0.0,0.0,4.18531342916e-08,1.24168391267e-05,-1.35796129896e-08,-0.002153,0.020744,0.075806,-0.013337,0.103464,0.093086
314,1170000000.0,0.0,0.000192298903126,0.0,1.0,0.0,0.0,0.0,-2.89254735719e-08,1.1930465007e-05,2.14857309722e-09,-0.002153,0.020744,0.075806,-0.013337,0.103464,0.093086
315,1180000000.0,0.0,0.000192298903126,0.0,1.0,0.0,0.0,0.0,3.34617098474e-08,1.21784205476e-05,-1.33841036032e-08,-0.002153,0.020744,0.075806,-0.013337,0.103464,0.093086
316,1190000000.0,0.0,0.000192298903126,0.0,1.0,0.0,0.0,0.0,-3.00245375229e-08,1.29413601826e-05,2.37959740801e-09,-0.002153,0.020744,0.075806,-0.013337,0.103464,0.093086
317,1200000000.0,0.0,0.000191268860355,-3.5527136788e-15,1.0,0.0,0.0,0.0,-4.23470467581e-08,1.36089320222e-05,1.64984275131e-08,-0.002153,0.020744,0.075806,-0.013337,0.103464,0.093086
318,1210000000.0,0.0,0.000191268860355,-3.5527136788e-15,1.0,0.0,0.0,0.0,2.82042993405e-08,1.35135651362e-05,1.02453101558e-09,-0.002153,0.020744,0.075806,-0.013337,0.103464,0.093086
319,1220000000.0,0.0,0.000191268860355,-3.5527136788e-15,1.0,0.0,0.0,0.0,4.00096045183e-09,1.28746032715e-05,1.68240665843e-09,-0.002153,0.020744,0.075806,-0.013337,0.103464,0.093086
320,1230000000.0,0.0,0.000191268860355,-3.5527136788e-15,1.0,0.0,0.0,0.0,7.42628292194e-10,1.21212005979e-05,1.75646075462e-09,-0.002153,0.020744,0.075806,-0.013337,0.103464,0.093086
321,1240000000.0,0.0,0.000191268860355,-3.5527136788e-15,1.0,0.0,0.0,0.0,3.72844120022e-08,1.16729734145e-05,-1.32437110167e-08,-0.002153,0.020744,0.075806,-0.013337,0.103464,0.093086
322,1250000000.0,0.0,0.000191268860355,-3.5527136788e-15,1.0,0.0,0.0,0.0,-2.95402138306e-08,1.17397303256e-05,2.47955989075e-09,-0.002153,0.020744,0.075806,-0.013337,0.103464,0.093086
323,1260000000.0,0.0,0.000191268860355,-3.5527136788e-15,1.0,0.0,0.0,0.0,-6.9909560807e-08,1.13964078992e-05,1.13549747383e-09,-0.002153,0.020744,0.075806,-0.013337,0.103464,0.093086
324,1270000000.0,0.0,0.000191268860355,-3.5527136788e-15,1.0,0.0,0.0,0.0,8.76168968489e-08,1.13773339763e-05,-1.24889822928e-08,-0.002153,0.020744,0.075806,-0.013337,0.103464,0.093086
325,1280000000.0,0.0,0.000191268860355,-3.5527136788e-15,1.0,0.0,0.0,0.0,1.51039820651e-08,1.00994111563e-05,-1.20849890095e-08,-0.002153,0.020744,0.075806,-0.013337,0.103464,0.093086
326,1290000000.0,0.0,0.000190200749785,0.0,1.0,0.0,0.0,0.0,-7.01569575767e-08,1.08051299321e-05,1.76764469728e-08,-0.002153,0.020744,0.075806,-0.013337,0.103464,0.093086
327,1300000000.0,0.0,0.000190200749785,0.0,1.0,0.0,0.0,0.0,2.45272566701e-08,9.76562478172e-06,1.6886678722e-09,-0.002153,0.020744,0.075806,-0.013337,0.103464,0.093086
328,1310000000.0,0.0,0.000190200749785,0.0,1.0,0.0,0.0,0.0,3.16038262227e-09,9.67979394773e-06,2.8465971802e-09,-0.002153,0.020744,0.075806,-0.013337,0.103464,0.093086
329,1320000000.0,0.0,0.000190200749785,0.0,1.0,0.0,0.0,0.0,4.55359250306e-10,9.48905926634e-06,2.91265411789e-09,-0.002153,0.020744,0.075806,-0.013337,0.103464,0.093086
330,1330000000.0,0.0,0.000190200749785,0.0,1.0,0.0,0.0,0.0,3.70452930554e-08,8.19206252345e-06,-1.15397966738e-08,-0.002153,0.020744,0.075806,-0.013337,0.103464,0.093086
331,1340000000.0,0.0,0.000190200749785,0.0,1.0,0.0,0.0,0.0,-9.40296231988e-08,8.15391558717e-06,3.18964099577e-09,-0.002153,0.020744,0.075806,-0.013337,0.103464,0.093086
332,1350000000.0,0.0,0.000190200749785,0.0,1.0,0.0,0.0,0.0,8.36348448274e-08,7.44819635656e-06,-1.09793099057e-08,-0.002153,0.020744,0.075806,-0.013337,0.103464,0.093086
333,1360000000.0,0.0,0.000190200749785,0.0,1.0,0.0,0.0,0.0,-5.96236162664e-08,7.59124759497e-06,1.90950313339e-08,-0.002153,0.020744,0.075806,-0.013337,0.103464,0.093086
334,1370000000.0,0.0,0.000190200749785,0.0,1.0,0.0,0.0,0.0,6.27692031685e-08,6.4277646743e-06,-1.15916369836e-08,-0.002153,0.020744,0.075806,-0.013337,0.103464,0.093086
335,1380000000.0,0.0,0.000190200749785,0.0,1.0,0.0,0.0,0.0,-6.27369800554e-08,6.43730163574e-06,1.94732994174e-08,-0.002153,0.020744,0.075806,-0.013337,0.103464,0.093086
336,1390000000.0,0.0,0.000190200749785,0.0,1.0,0.0,0.0,0.0,6.24889793244e-08,5.1403044381e-06,-1.1143053591e-08,-0.002153,0.020744,0.075806,-0.013337,0.103464,0.093086
337,1400000000.0,0.0,0.000190200749785,0.0,1.0,0.0,0.0,0.0,-2.5499529599e-08,5.45501688975e-06,5.12299358491e-09,-0.002153,0.020744,0.075806,-0.013337,0.103464,0.093086
338,1410000000.0,0.0,0.000190200749785,0.0,1.0,0.0,0.0,0.0,-3.49701623215e-09,6.15119915892e-06,4.45954562167e-09,-0.002153,0.020744,0.075806,-0.013337,0.103464,0.093086
339,1420000000.0,0.0,0.000190200749785,0.0,1.0,0.0,0.0,0.0,3.65746650743e-08,4.30107093052e-06,-1.00169978978e-08,-0.002153,0.020744,0.075806,-0.013337,0.103464,0.093086
340,1430000000.0,0.0,0.000190200749785,0.0,1.0,0.0,0.0,0.0,-2.89622210659e-08,4.47273259851e-06,5.50107648323e-09,-0.002153,0.020744,0.075806,-0.013337,0.103464,0.093086
341,1440000000.0,-7.1054273576e-15,0.000189170823433,0.0,1.0,0.0,0.0,0.0,-6.87762522489e-08,4.30107093052e-06,4.27382351731e-09,-0.002153,0.020744,0.075806,-0.013337,0.103464,0.093086
342,1450000000.0,-7.1054273576e-15,0.000189170823433,0.0,1.0,0.0,0.0,0.0,5.05843580356e-08,4.11033624914e-06,5.62096857948e-09,-0.002153,0.020744,0.075806,-0.013337,0.103464,0.093086
343,1460000000.0,-7.1054273576e-15,0.000189170823433,0.0,1.0,0.0,0.0,0.0,4.42766712183e-08,3.56674195245e-06,-9.15561315651e-09,-0.002153,0.020744,0.075806,-0.013337,0.103464,0.093086
344,1470000000.0,-7.1054273576e-15,0.000189170823433,0.0,1.0,0.0,0.0,0.0,-2.80576024636e-08,3.60488888873e-06,6.16915185603e-09,-0.002153,0.020744,0.075806,-0.013337,0.103464,0.093086
345,1480000000.0,-7.1054273576e-15,0.000189170823433,0.0,1.0,0.0,0.0,0.0,-3.06502698777e-08,3.72886643163e-06,-1.01456203438e-08,-0.002153,0.020744,0.075806,-0.013337,0.103464,0.093086
346,1490000000.0,-7.1054273576e-15,0.000189170823433,0.0,1.0,0.0,0.0,0.0,2.15707327555e-08,2.99453722619e-06,6.58276100296e-09,-0.002153,0.020744,0.075806,-0.013337,0.103464,0.093086
347,1500000000.0,-7.1054273576e-15,0.000189170823433,0.0,1.0,0.0,0.0,0.0,4.01674782324e-08,2.31742842516e-06,-9.05876440527e-09,-0.002153,0.020744,0.075806,-0.013337,0.103464,0.093086
348,1510000000.0,-7.1054273576e-15,0.000189170823433,0.0,1.0,0.0,0.0,0.0,-2.84354246816e-08,2.22206108447e-06,6.31315399957e-09,-0.002153,0.020744,0.075806,-0.013337,0.103464,0.093086
349,1520000000.0,-7.1054273576e-15,0.000189170823433,0.0,1.0,0.0,0.0,0.0,0.0,0.0,0.0,-0.002153,0.020744,0.075806,-0.013337,0.103464,0.093086
350,1530000000.0,-7.1054273576e-15,0.000189170823433,0.0,1.0,0.0,0.0,0.0,-9.33696106542e-11,2.86102277869e-07,-1.02379132949e-10,-0.002153,0.020744,0.075806,-0.013337,0.103464,0.093086
351,1540000000.0,-7.1054273576e-15,0.000189170823433,0.0,1.0,0.0,0.0,0.0,-1.1147042317e-10,5.72204555738e-07,-1.97199617746e-10,-0.002153,0.020744,0.075806,-0.013337,0.103464,0.093086
352,1550000000.0,-7.1054273576e-15,0.000189170823433,0.0,1.0,0.0,0.0,0.0,-1.18701715124e-10,8.58306862028e-07,-2.91696999888e-10,-0.002153,0.020744,0.075806,-0.013337,0.103464,0.093086
353,1560000000.0,-7.1054273576e-15,0.000189170823433,0.0,1.0,0.0,0.0,0.0,-1.24360313714e-10,1.14440911148e-06,-3.86168430566e-10,-0.002153,0.020744,0.075806,-0.013337,0.103464,0.093086
354,1570000000.0,-7.1054273576e-15,0.000189170823433,0.0,1.0,0.0,0.0,0.0,-1.29795063586e-10,1.43051147461e-06,-4.80636364042e-10,-0.002153,0.020744,0.075806,-0.013337,0.103464,0.093086
355,1580000000.0,-7.1054273576e-15,0.000189170823433,0.0,1.0,0.0,0.0,0.0,-1.35195563078e-10,1.71661372406e-06,-5.75103853428e-10,-0.002153,0.020744,0.075806,-0.013337,0.103464,0.093086
356,1590000000.0,-7.1054273576e-15,0.000189170823433,0.0,1.0,0.0,0.0,0.0,-1.40592065767e-10,2.0027159735e-06,-6.69571342815e-10,-0.002153,0.020744,0.075806,-0.013337,0.103464,0.093086
357,1600000000.0,-7.1054273576e-15,0.000189170823433,0.0,1.0,0.0,0.0,0.0,2.64779735915e-08,1.11579890927e-06,1.46890091202e-08,-0.002153,0.020744,0.075806,-0.013337,0.103464,0.093086
358,1610000000.0,-7.1054273576e-15,0.000189170823433,0.0,1.0,0.0,0.0,0.0,-2.30766445952e-08,1.05857850485e-06,-1.95491445254e-09,-0.002153,0.020744,0.075806,-0.013337,0.103464,0.093086
359,1620000000.0,-7.1054273576e-15,0.000189170823433,0.0,1.0,0.0,0.0,0.0,-4.63638905046e-09,1.30653381802e-06,-9.16067555145e-10,-0.002153,0.020744,0.075806,-0.013337,0.103464,0.093086
360,1630000000.0,-7.1054273576e-15,0.000189170823433,0.0,1.0,0.0,0.0,0.0,-2.04079020349e-09,1.55448913119e-06,-9.67648294825e-10,-0.002153,0.020744,0.075806,-0.013337,0.103464,0.093086
361,1640000000.0,-7.1054273576e-15,0.000189170823433,0.0,1.0,0.0,0.0,0.0,-1.20275012172e-09,1.81198117843e-06,-1.31344302101e-09,-0.002153,0.020744,0.075806,-0.013337,0.103464,0.093086
362,1650000000.0,-7.1054273576e-15,0.000189170823433,0.0,1.0,0.0,0.0,0.0,-1.11612774578e-09,2.06947311199e-06,-1.65181823775e-09,-0.002153,0.020744,0.075806,-0.013337,0.103464,0.093086
363,1660000000.0,-7.1054273576e-15,0.000189170823433,0.0,1.0,0.0,0.0,0.0,6.33557064589e-08,1.56402586526e-06,-1.11369513611e-09,-0.002153,0.020744,0.075806,-0.013337,0.103464,0.093086
364,1670000000.0,-7.1054273576e-15,0.000189170823433,0.0,1.0,0.0,0.0,0.0,1.14176463839e-08,1.77383424216e-06,-1.63302238398e-09,-0.002153,0.020744,0.075806,-0.013337,0.103464,0.093086
365,1680000000.0,-7.1054273576e-15,0.000189170823433,0.0,1.0,0.0,0.0,0.0,-3.32276890447e-08,2.41279599322e-06,-1.73787064739e-08,-0.002153,0.020744,0.075806,-0.013337,0.103464,0.093086
366,1690000000.0,-7.1054273576e-15,0.000189170823433,0.0,1.0,0.0,0.0,0.0,-4.9963047033e-09,1.7642973944e-06,1.42355700561e-08,-0.002153,0.020744,0.075806,-0.013337,0.103464,0.093086
367,1700000000.0,-7.1054273576e-15,0.000189170823433,0.0,1.0,0.0,0.0,0.0,-2.02862993071e-09,1.96456903723e-06,1.22017276283e-08,-0.002153,0.020744,0.075806,-0.013337,0.103464,0.093086
368,1710000000.0,-7.1054273576e-15,0.000189170823433,0.0,1.0,0.0,0.0,0.0,-6.52256204603e-08,1.39236442465e-06,1.15352349894e-08,-0.002153,0.020744,0.075806,-0.013337,0.103464,0.093086
369,1720000000.0,-7.1054273576e-15,0.000189170823433,0.0,1.0,0.0,0.0,0.0,-1.37467939254e-08,1.54495239713e-06,1.19821441658e-08,-0.002153,0.020744,0.075806,-0.013337,0.103464,0.093086
370,1730000000.0,-7.1054273576e-15,0.000189170823433,0.0,1.0,0.0,0.0,0.0,3.10173895457e-08,2.11715700971e-06,-2.80223044768e-09,-0.002153,0.020744,0.075806,-0.013337,0.103464,0.093086
371,1740000000.0,-7.1054273576e-15,0.000189170823433,0.0,1.0,0.0,0.0,0.0,2.92943469482e-09,7.82012932632e-07,-2.37712272089e-09,-0.002153,0.020744,0.075806,-0.013337,0.103464,0.093086
372,1750000000.0,-7.1054273576e-15,0.000189170823433,0.0,1.0,0.0,0.0,0.0,-1.20099818979e-09,8.96453855148e-07,-2.72261613254e-09,-0.002153,0.020744,0.075806,-0.013337,0.103464,0.093086
373,1760000000.0,-7.1054273576e-15,0.000189170823433,0.0,1.0,0.0,0.0,0.0,-1.83392778741e-09,1.01089472082e-06,-3.05056557792e-09,-0.002153,0.020744,0.075806,-0.013337,0.103464,0.093086
374,1770000000.0,-7.1054273576e-15,0.000189170823433,0.0,1.0,0.0,0.0,0.0,-1.96223459703e-09,1.12533564334e-06,-3.37237993087e-09,-0.002153,0.020744,0.075806,-0.013337,0.103464,0.093086
375,1780000000.0,-7.1054273576e-15,0.000189170823433,0.0,1.0,0.0,0.0,0.0,-2.01772798469e-09,1.23977656585e-06,-3.69319752558e-09,-0.002153,0.020744,0.075806,-0.013337,0.103464,0.093086
376,1790000000.0,-7.1054273576e-15,0.000189170823433,0.0,1.0,0.0,0.0,0.0,2.55512517811e-08,1.66893005371e-06,1.15077236629e-08,-0.002153,0.020744,0.075806,-0.013337,0.103464,0.093086
377,1800000000.0,-7.1054273576e-15,0.000189170823433,0.0,1.0,0.0,0.0,0.0,-2.37057111718e-08,1.47819514495e-06,-5.26355625752e-09,-0.002153,0.020744,0.075806,-0.013337,0.103464,0.093086
378,1810000000.0,-7.1054273576e-15,0.000189170823433,0.0,1.0,0.0,0.0,0.0,2.27270309239e-08,1.90734863281e-06,1.08615152428e-08,-0.002153,0.020744,0.075806,-0.013337,0.103464,0.093086
379,1820000000.0,-7.1054273576e-15,0.000189170823433,0.0,1.0,0.0,0.0,0.0,-2.37844464124e-08,1.71661372406e-06,-6.05819083788e-09,-0.002153,0.020744,0.075806,-0.013337,0.103464,0.093086
380,1830000000.0,-7.1054273576e-15,0.000189170823433,0.0,1.0,0.0,0.0,0.0,2.2715148873e-08,2.14576721191e-06,1.00852490803e-08,-0.002153,0.020744,0.075806,-0.013337,0.103464,0.093086
381,1840000000.0,-7.1054273576e-15,0.000189170823433,0.0,1.0,0.0,0.0,0.0,4.09214706565e-08,1.18255616144e-06,-6.23936191602e-09,-0.002153,0.020744,0.075806,-0.013337,0.103464,0.093086
382,1850000000.0,-7.1054273576e-15,0.000189170823433,0.0,1.0,0.0,0.0,0.0,8.22273893419e-09,1.24931329992e-06,-6.06054362251e-09,-0.002153,0.020744,0.075806,-0.013337,0.103464,0.093086
383,1860000000.0,-7.1054273576e-15,0.000189170823433,0.0,1.0,0.0,0.0,0.0,3.00831404232e-09,1.32560728616e-06,-6.34576879932e-09,-0.002153,0.020744,0.075806,-0.013337,0.103464,0.093086
384,1870000000.0,-7.1054273576e-15,0.000189170823433,0.0,1.0,0.0,0.0,0.0,1.77301040516e-09,1.39236442465e-06,-6.37784003388e-09,-0.002153,0.020744,0.075806,-0.013337,0.103464,0.093086
385,1880000000.0,-7.1054273576e-15,0.000189170823433,0.0,1.0,0.0,0.0,0.0,-3.55627385318e-08,1.88827505099e-06,-2.19890559094e-08,-0.002153,0.020744,0.075806,-0.013337,0.103464,0.093086
386,1890000000.0,-7.1054273576e-15,0.000189170823433,0.0,1.0,0.0,0.0,0.0,3.04902094683e-08,1.54495239713e-06,-5.39413358425e-09,-0.002153,0.020744,0.075806,-0.013337,0.103464,0.093086
387,1900000000.0,-7.1054273576e-15,0.000189170823433,0.0,1.0,0.0,0.0,0.0,-2.27912320128e-08,1.93595883502e-06,8.54372927961e-09,-0.002153,0.020744,0.075806,-0.013337,0.103464,0.093086
388,1910000000.0,-7.1054273576e-15,0.000189170823433,0.0,1.0,0.0,0.0,0.0,-1.42071616693e-08,1.26838676806e-06,7.54720375085e-09,-0.002153,0.020744,0.075806,-0.013337,0.103464,0.093086
389,1920000000.0,-7.1054273576e-15,0.000189170823433,0.0,1.0,0.0,0.0,0.0,-4.2911549869e-09,1.32560728616e-06,7.56369455957e-09,-0.002153,0.020744,0.075806,-0.013337,0.103464,0.093086
390,1930000000.0,-7.1054273576e-15,0.000189170823433,0.0,1.0,0.0,0.0,0.0,-2.49409759512e-09,1.38282769058e-06,7.2876455981e-09,-0.002153,0.020744,0.075806,-0.013337,0.103464,0.093086
391,1940000000.0,-7.1054273576e-15,0.000189170823433,0.0,1.0,0.0,0.0,0.0,0.0,0.0,0.0,-0.002153,0.020744,0.075806,-0.013337,0.103464,0.093086
392,1950000000.0,-7.1054273576e-15,0.000189170823433,0.0,1.0,0.0,0.0,0.0,-1.58230772929e-09,4.76837129781e-08,-3.1705663095e-10,-0.002153,0.020744,0.075806,-0.013337,0.103464,0.093086
393,1960000000.0,-7.1054273576e-15,0.000189170823433,0.0,1.0,0.0,0.0,0.0,-1.89977100717e-09,1.04904174236e-07,-6.01834526659e-10,-0.002153,0.020744,0.075806,-0.013337,0.103464,0.093086
394,1970000000.0,-7.1054273576e-15,0.000189170823433,0.0,1.0,0.0,0.0,0.0,-2.03469685545e-09,1.62124635494e-07,-8.83736250845e-10,-0.002153,0.020744,0.075806,-0.013337,0.103464,0.093086
395,1980000000.0,-7.1054273576e-15,0.000189170823433,0.0,1.0,0.0,0.0,0.0,-1.65792435336e-09,2.09808348473e-07,-1.40557154804e-09,-0.002153,0.020744,0.075806,-0.013337,0.103464,0.093086
396,1990000000.0,-7.1054273576e-15,0.000189170823433,0.0,1.0,0.0,0.0,0.0,-1.66278035785e-09,2.5749204724e-07,-1.91444504694e-09,-0.002153,0.020744,0.075806,-0.013337,0.103464,0.093086
397,2000000000.0,-7.1054273576e-15,0.000189170823433,0.0,1.0,0.0,0.0,0.0,-1.72268044274e-09,3.05175774429e-07,-2.42357556246e-09,-0.002153,0.020744,0.075806,-0.013337,0.103464,0.093086
398,2010000000.0,-7.1054273576e-15,0.000189170823433,0.0,1.0,0.0,0.0,0.0,-1.19820453559e-09,3.43322739127e-07,-2.68428790307e-09,-0.002153,0.020744,0.075806,-0.013337,0.103464,0.093086
399,2020000000.0,-7.1054273576e-15,0.000189170823433,0.0,1.0,0.0,0.0,0.0,-6.46827647e-10,3.81469703825e-07,-2.71803934915e-09,-0.002153,0.020744,0.075806,-0.013337,0.103464,0.093086
400,2030000000.0,-7.1054273576e-15,0.000189170823433,0.0,1.0,0.0,0.0,0.0,-5.66894475806e-10,4.19616696945e-07,-2.77329914589e-09,-0.002153,0.020744,0.075806,-0.013337,0.103464,0.093086
401,2040000000.0,-2.58240660855e-07,0.000188102712851,2.47941874321e-05,0.999999999998,1.68088483465e-07,-1.97136324459e-06,8.34465312349e-07,4.56249690615e-05,8.48770127959e-07,0.00272794719785,-0.002153,0.020744,0.075806,-0.013337,0.103464,0.093086
402,2050000000.0,5.46705258841e-06,0.000211791950278,0.00277158482024,0.999999999398,1.56220618497e-07,-2.84729910779e-06,-3.45706921281e-05,-0.00282403384335,-8.10623134867e-07,0.27166941762,-0.002153,0.020744,0.075806,-0.013337,0.103464,0.093086
403,2060000000.0,3.18925694387e-06,0.000250205979679,0.00811814928917,0.999999995787,1.41876719262e-07,-3.28787259213e-06,-9.17315461068e-05,-0.00552849471569,-7.43865939568e-07,0.52996712923,-0.002153,0.020744,0.075806,-0.013337,0.103464,0.093086
404,2070000000.0,-1.60850521524e-06,0.000298271188509,0.0159043187279,0.999999986687,1.31034417261e-07,-3.55471711166e-06,-0.000163137909843,-0.00805448181927,-3.91006466316e-07,0.772594034672,-0.002153,0.020744,0.075806,-0.013337,0.103464,0.093086
405,2080000000.0,-1.93339684529e-06,0.000350608839653,0.0258249736358,0.999999970871,1.21254968843e-07,-3.71389030301e-06,-0.000241339185701,-0.0102736279368,-3.71932969773e-06,0.985370457172,-0.002153,0.020744,0.075806,-0.013337,0.103464,0.093086
406,2090000000.0,-3.60671401012e-06,0.00040485383942,0.0377064752423,0.999999948175,1.14301376197e-07,-3.80960491964e-06,-0.000321924675081,-0.0123157734051,-2.45094292961e-06,1.18167591095,-0.002153,0.020744,0.075806,-0.013337,0.103464,0.093086
407,2100000000.0,-2.15938106862e-06,0.000452728243541,0.0507534625752,0.999999922708,1.115402809e-07,-3.88139218166e-06,-0.000393152201238,-0.0135314809158,-1.51634208145e-06,1.29846870899,-0.002153,0.020744,0.075806,-0.013337,0.103464,0.093086
408,2110000000.0,-1.80223301527e-06,0.00050300592557,0.0657365024192,0.999999890501,1.0681172119e-07,-3.89336135254e-06,-0.000467956007073,-0.0155459819362,-1.7070769901e-06,1.49208879471,-0.002153,0.020744,0.075806,-0.013337,0.103464,0.093086
409,2120000000.0,1.63631020911e-06,0.000550308148373,0.0822550732852,0.999999854986,1.13906185539e-07,-3.90533570999e-06,-0.000538527913951,-0.017148097977,-1.80244444481e-06,1.64595973492,-0.002153,0.020744,0.075806,-0.013337,0.103464,0.093086
410,2130000000.0,3.12953915937e-06,0.000593032804314,0.100059246595,0.999999818714,1.15525108924e-07,-3.92146810341e-06,-0.000602126056454,-0.0184900108725,-3.16619866703e-06,1.77505743504,-0.002153,0.020744,0.075806,-0.013337,0.103464,0.093086
411,2140000000.0,2.79664185854e-06,0.000631751958277,0.119137578877,0.999999782309,1.13910715971e-07,-3.93135609333e-06,-0.000659823338957,-0.0198205690831,-4.94956975716e-06,1.90292441845,-0.002153,0.020744,0.075806,-0.013337,0.103464,0.093086
412,2150000000.0,2.80239260064e-06,0.000662383972664,0.138915949602,0.999999751393,1.23234168647e-07,-3.94125027997e-06,-0.000705122879274,-0.0205640383065,-6.79969753059e-06,1.97401499748,-0.002153,0.020744,0.075806,-0.013337,0.103464,0.093086
413,2160000000.0,5.6904174599e-06,0.000690307584591,0.159882692995,0.999999721147,1.19842443247e-07,-3.90588244531e-06,-0.000746786515133,-0.0218029990792,-6.78062406267e-06,2.09290575981,-0.002153,0.020744,0.075806,-0.013337,0.103464,0.093086
414,2170000000.0,5.49989333365e-06,0.000711860600859,0.181511290198,0.999999696687,1.25928267924e-07,-3.67494495107e-06,-0.000778853800141,-0.0225000921637,-5.46455385142e-06,2.16005349159,-0.002153,0.020744,0.075806,-0.013337,0.103464,0.093086
415,2180000000.0,2.84709924614e-06,0.000730476342145,0.204108847414,0.999999674763,1.31606824771e-07,-3.78418388175e-06,-0.000806510290215,-0.0235092751682,-5.17845137482e-06,2.25716543198,-0.002153,0.020744,0.075806,-0.013337,0.103464,0.093086
416,2190000000.0,1.40699854967e-06,0.000744171091352,0.227322524284,0.999999658163,1.29215512901e-07,-4.22214910556e-06,-0.000826835482016,-0.0241657532752,-4.42504870102e-06,2.31979703903,-0.002153,0.020744,0.075806,-0.013337,0.103464,0.093086
417,2200000000.0,-6.28093431487e-07,0.000754890381355,0.251325880119,0.999999644929,1.22787023937e-07,-3.92826189499e-06,-0.000842690322623,-0.0249902978539,-4.60624687593e-06,2.39860582352,-0.002153,0.020744,0.075806,-0.013337,0.103464,0.093086
418,2210000000.0,-1.25184534028e-06,0.000762176467102,0.275926283157,0.999999635884,1.22663029956e-07,-3.18497138319e-06,-0.000853359542975,-0.0256159659475,-3.4141539802e-06,2.4591460228,-0.002153,0.020744,0.075806,-0.013337,0.103464,0.093086
419,2220000000.0,-1.23897920901e-06,0.000766830402426,0.30119811596,0.999999629959,1.30444866075e-07,-3.38055454446e-06,-0.000860273681341,-0.026315215975,-3.06129459249e-06,2.52644610405,-0.002153,0.020744,0.075806,-0.013337,0.103464,0.093086
420,2230000000.0,-2.9538647226e-06,0.00076866149902,0.327002109898,0.999999627595,1.36549692054e-07,-3.85597548214e-06,-0.000863015513813,-0.0268804170191,-2.08854680794e-06,2.58017349243,-0.002153,0.020744,0.075806,-0.013337,0.103464,0.093086
421,2240000000.0,-3.45605684515e-06,0.000768661499023,0.353422223491,0.999999627595,1.36549692054e-07,-3.85597548214e-06,-0.000863015513813,-0.0275252312422,-1.01089472104e-06,2.6418132782,-0.002153,0.020744,0.075806,-0.013337,0.103464,0.093086
422,2250000000.0,-5.03046660327e-06,0.000766487093642,0.380311559129,0.999999630471,1.23029503751e-07,-3.41539801824e-06,-0.000859677656248,-0.028016127646,-1.91688536733e-06,2.68910646439,-0.002153,0.020744,0.075806,-0.013337,0.103464,0.093086
423,2260000000.0,-4.87570166285e-06,0.000762939453125,0.407767426046,0.999999635018,1.16974174902e-07,-3.36805876322e-06,-0.000854372857192,-0.02860429883,-8.01086401214e-07,2.74562382698,-0.002153,0.020744,0.075806,-0.013337,0.103464,0.093086
424,2270000000.0,-5.29653767956e-06,0.000757636968043,0.435644833879,0.999999641759,1.20238611345e-07,-3.38002407341e-06,-0.000846445404503,-0.0290494505316,-5.53131087822e-07,2.78833150864,-0.002153,0.020744,0.075806,-0.013337,0.103464,0.093086
425,2280000000.0,-3.49158229795e-06,0.000751495361325,0.464041091861,0.999999649437,1.22666862667e-07,-3.32384909274e-06,-0.00083732590152,-0.0295927301049,-6.58035276713e-07,2.84041929245,-0.002153,0.020744,0.075806,-0.013337,0.103464,0.093086
426,2290000000.0,-5.73901893119e-06,0.000744018470868,0.492826427861,0.999999658659,1.2510228814e-07,-3.25206939678e-06,-0.000826239457021,-0.0299978256226,-6.10351549302e-07,2.87943744659,-0.002153,0.020744,0.075806,-0.013337,0.103464,0.093086
427,2300000000.0,-9.23745521675e-06,0.000736083951775,0.522098151113,0.999999668389,1.22275805647e-07,-3.18860763371e-06,-0.000814378121242,-0.0305039845407,-1.37329095695e-06,2.92788624763,-0.002153,0.020744,0.075806,-0.013337,0.103464,0.093086
428,2310000000.0,-8.84146810165e-06,0.000727119389921,0.551728515919,0.999999679173,1.27319358778e-07,-3.11734984781e-06,-0.000801026689957,-0.0308809820563,-7.438659404e-07,2.96390867233,-0.002153,0.020744,0.075806,-0.013337,0.103464,0.093086
429,2320000000.0,-9.33891662669e-06,0.000718002323993,0.581810937563,0.999999689873,1.24695111015e-07,-3.04608586721e-06,-0.000787556014512,-0.0313544496894,-5.72204556404e-07,3.00934147835,-0.002153,0.020744,0.075806,-0.013337,0.103464,0.093086
430,2330000000.0,-9.53792081049e-06,0.000708122155629,0.612230981335,0.99999970136,1.22301894945e-07,-2.97482198547e-06,-0.000772833731608,-0.0317044332623,-1.29699708462e-06,3.04293775558,-0.002153,0.020744,0.075806,-0.013337,0.103464,0.093086
431,2340000000.0,-1.03919846026e-05,0.000698280287907,0.643080195003,0.999999712584,1.23072184166e-07,-2.9051210173e-06,-0.000758170940511,-0.03215200454,-6.67572010782e-07,3.08586239815,-0.002153,0.020744,0.075806,-0.013337,0.103464,0.093086
432,2350000000.0,-6.89473768745e-06,0.000687942490917,0.674244183586,0.999999724081,1.16090042857e-07,-2.83073285029e-06,-0.000742852567099,-0.0324817635119,-1.11579890971e-06,3.11749148369,-0.002153,0.020744,0.075806,-0.013337,0.103464,0.093086
433,2360000000.0,-7.62866477544e-06,0.000677909818471,0.705814415393,0.9999997353,1.22745950681e-07,-2.76415704259e-06,-0.000727593815497,-0.0329050794244,2.77519211478e-06,3.15832448006,-0.002153,0.020744,0.075806,-0.013337,0.103464,0.093086
434,2370000000.0,-7.72644817459e-06,0.000667343148962,0.73768984616,0.999999746498,1.27460958121e-07,-2.70538183028e-06,-0.00071203701863,-0.0332163013518,2.48908986511e-06,3.18835926056,-0.002153,0.020744,0.075806,-0.013337,0.103464,0.093086
435,2380000000.0,-8.0422685329e-06,0.00065715785604,0.769952487429,0.999999757247,1.30565140644e-07,-2.64400463951e-06,-0.000696778201681,-0.0336242057383,1.06811523848e-06,3.22743821144,-0.002153,0.020744,0.075806,-0.013337,0.103464,0.093086
436,2390000000.0,-7.54316322116e-06,0.000646705622788,0.80250316245,0.999999767925,1.30329278869e-07,-2.58054444896e-06,-0.000681281026516,-0.0339239761233,9.91821252461e-07,3.25618243217,-0.002153,0.020744,0.075806,-0.013337,0.103464,0.093086
437,2400000000.0,-1.09573972438e-05,0.000636672950346,0.835429564773,0.999999777966,1.25655591598e-07,-2.51812167373e-06,-0.000666379811382,-0.0343159064651,1.06811523826e-06,3.29379105568,-0.002153,0.020744,0.075806,-0.013337,0.103464,0.093086
438,2410000000.0,-9.6428918539e-06,0.000626487657428,0.868634504352,0.999999787979,1.27382727977e-07,-2.44738079258e-06,-0.000651180681008,-0.0346066653728,1.33514401979e-06,3.3214931488,-0.002153,0.020744,0.075806,-0.013337,0.103464,0.093086
439,2420000000.0,-8.28818278364e-06,0.000616798410189,0.902201860246,0.999999797306,1.21731029645e-07,-2.37611509601e-06,-0.000636696754752,-0.0349850207567,1.40190115805e-06,3.35786056519,-0.002153,0.020744,0.075806,-0.013337,0.103464,0.093086
440,2430000000.0,-9.75425638927e-06,0.000606956426054,0.936040044957,0.999999806423,1.20248448365e-07,-2.31213422847e-06,-0.00062221282835,-0.035263761878,1.75476066011e-06,3.38472557068,-0.002153,0.020744,0.075806,-0.013337,0.103464,0.093086
441,2440000000.0,-1.10808029632e-05,0.000597686739635,0.970231109756,0.999999814932,1.25690101493e-07,-2.24347635147e-06,-0.000608384549056,-0.0356328934431,1.69754025592e-06,3.42004108429,-0.002153,0.020744,0.075806,-0.013337,0.103464,0.093086
442,2450000000.0,-1.13143185132e-05,0.000588302616954,1.00468350687,0.999999823284,1.27617927281e-07,-2.17221548088e-06,-0.000594496647625,-0.0359066091478,2.11715700926e-06,3.44623827934,-0.002153,0.020744,0.075806,-0.013337,0.103464,0.093086
443,2460000000.0,-1.13288483732e-05,0.000579566927623,1.0394811551,0.99999983096,1.25953646624e-07,-2.1014727169e-06,-0.000581443259437,-0.0362655967474,1.25885003377e-06,3.48065853119,-0.002153,0.020744,0.075806,-0.013337,0.103464,0.093086
444,2470000000.0,-1.02106178446e-05,0.000570754986256,1.07453632116,0.999999838498,1.27712358633e-07,-2.03229237533e-06,-0.000568330249114,-0.0365328080952,1.05857850397e-06,3.50632953644,-0.002153,0.020744,0.075806,-0.013337,0.103464,0.093086
445,2480000000.0,-8.79394298181e-06,0.000562515226196,1.10992910934,0.999999845401,1.26699845115e-07,-1.96675158681e-06,-0.000556051687042,-0.0368828587234,1.48773187836e-06,3.53998470306,-0.002153,0.020744,0.075806,-0.013337,0.103464,0.093086
446,2490000000.0,-6.16504908635e-06,0.000554237281904,1.14557178638,0.999999852154,1.22133952785e-07,-1.9053700745e-06,-0.000543773124892,-0.037144780159,1.64031973693e-06,3.56524920464,-0.002153,0.020744,0.075806,-0.013337,0.103464,0.093086
447,2500000000.0,-6.99260719728e-06,0.00054672232363,1.18154632407,0.999999858279,1.17906162111e-07,-1.84658969565e-06,-0.000532388633044,-0.0374880246818,4.93049628791e-06,3.59824967384,-0.002153,0.020744,0.075806,-0.013337,0.103464,0.093086
448,2510000000.0,-6.60794627549e-06,0.000538825988766,1.21777075062,0.999999864307,1.18196960996e-07,-1.78937220308e-06,-0.000520944551596,-0.0377479605377,4.55856297732e-06,3.62321257591,-0.002153,0.020744,0.075806,-0.013337,0.103464,0.093086
449,2520000000.0,-5.80565300368e-06,0.000531921396032,1.25432135582,0.999999869747,1.28183728021e-07,-1.74048212837e-06,-0.000510394507948,-0.0380830764771,6.77108743963e-07,3.65565061569,-0.002153,0.020744,0.075806,-0.013337,0.103464,0.093086
450,2530000000.0,-3.77127601325e-06,0.000524749746546,1.29111994262,0.999999875106,1.35690607417e-07,-1.69627192959e-06,-0.000499784907235,-0.0383400805295,3.54766848343e-06,3.68040633202,-0.002153,0.020744,0.075806,-0.013337,0.103464,0.093086
451,2540000000.0,-5.07416304174e-06,0.000518150278356,1.32823894662,0.999999879915,1.3972313806e-07,-1.6609025163e-06,-0.000490069344365,-0.0386716388166,3.16619866636e-06,3.71237134933,-0.002153,0.020744,0.075806,-0.013337,0.103464,0.093086
452,2550000000.0,-5.1052370651e-06,0.000511550810185,1.36560211772,0.999999884657,1.39067308946e-07,-1.61876883309e-06,-0.000480294191936,-0.0389286987483,2.57492069888e-06,3.73701477051,-0.002153,0.020744,0.075806,-0.013337,0.103464,0.093086
453,2560000000.0,-4.61935537288e-06,0.000505561823957,1.40328193126,0.999999888912,1.42896371569e-07,-1.57975827958e-06,-0.000471353487833,-0.0392573550344,1.73568719175e-06,3.76858305931,-0.002153,0.020744,0.075806,-0.013337,0.103464,0.093086
454,2570000000.0,-6.6761510169e-06,0.000499534537084,1.44120587219,0.999999893114,1.42522815272e-07,-1.54022555587e-06,-0.000462353194175,-0.0395119003952,1.55448913031e-06,3.79307579994,-0.002153,0.020744,0.075806,-0.013337,0.103464,0.093086
455,2580000000.0,-4.36177127483e-06,0.000494003295898,1.47944268078,0.999999896829,1.38007217376e-07,-1.50121122977e-06,-0.000454246970906,-0.0398369431496,2.33650212e-06,3.82417297363,-0.002153,0.020744,0.075806,-0.013337,0.103464,0.093086
456,2590000000.0,-4.59006886899e-06,0.000488471938294,1.51792361675,0.999999900558,1.37644300902e-07,-1.46531969525e-06,-0.00044596191401,-0.0400872305036,1.87873831647e-06,3.84835505486,-0.002153,0.020744,0.075806,-0.013337,0.103464,0.093086
457,2600000000.0,-4.16235809553e-06,0.000483436509963,1.55670784444,0.999999903853,1.41666264719e-07,-1.42995034969e-06,-0.000438511337978,-0.0404057875276,1.11579890838e-06,3.87893080711,-0.002153,0.020744,0.075806,-0.013337,0.103464,0.093086
458,2610000000.0,-2.44296963814e-06,0.000478324829601,1.595734332,0.999999907144,1.41501734441e-07,-1.39509927061e-06,-0.000430941550371,-0.0406553260982,1.65939331875e-06,3.90292787552,-0.002153,0.020744,0.075806,-0.013337,0.103464,0.093086
459,2620000000.0,-3.84233383954e-06,0.000473709078502,1.63506025706,0.999999910099,1.46433956738e-07,-1.36701237646e-06,-0.000424027410046,-0.0409677885473,1.38282769013e-06,3.93303847313,-0.002153,0.020744,0.075806,-0.013337,0.103464,0.093086
460,2630000000.0,-3.91029102076e-06,0.000469016958959,1.67462462749,0.999999913032,1.46429409376e-07,-1.3342420091e-06,-0.000417053680183,-0.0412171445787,1.16348269241e-06,3.95690655708,-0.002153,0.020744,0.075806,-0.013337,0.103464,0.093086
461,2640000000.0,-3.28251051229e-06,0.000464782700874,1.71448847514,0.999999915672,1.46265062173e-07,-1.30303210721e-06,-0.000410675975585,-0.0415263995528,1.38282768991e-06,3.98660087585,-0.002153,0.020744,0.075806,-0.013337,0.103464,0.093086
462,2650000000.0,-1.32332295522e-06,0.000460433890105,1.75459076817,0.999999918271,1.42929631797e-07,-1.27390151866e-06,-0.000404298270974,-0.0417735949159,1.57356259844e-06,4.01038694382,-0.002153,0.020744,0.075806,-0.013337,0.103464,0.093086
463,2660000000.0,-2.40342941993e-06,0.000456581125032,1.79498486972,0.999999920615,1.48119984167e-07,-1.24945578012e-06,-0.000398457002098,-0.042077600956,1.57356259889e-06,4.03970384598,-0.002153,0.020744,0.075806,-0.013337,0.103464,0.093086
464,2670000000.0,-2.15212887156e-06,0.000452613807283,1.83561741664,0.999999922926,1.4507186169e-07,-1.22240600325e-06,-0.000392615765727,-0.0423255041242,1.44958494186e-06,4.06344890594,-0.002153,0.020744,0.075806,-0.013337,0.103464,0.093086
465,2680000000.0,-4.92025763776e-06,0.00044902798254,1.87653986483,0.999999924971,1.42046236384e-07,-1.1979570968e-06,-0.000387370554634,-0.0426269583404,2.0694731111e-06,4.09241485596,-0.002153,0.020744,0.075806,-0.013337,0.103464,0.093086
466,2690000000.0,-2.5226243423e-06,0.000445403973576,1.91769889088,0.999999927035,1.37632404251e-07,-1.16674574391e-06,-0.000382006131971,-0.042876008898,1.54495239668e-06,4.11615753174,-0.002153,0.020744,0.075806,-0.013337,0.103464,0.093086
467,2700000000.0,-3.1046910749e-06,0.000442161574028,1.95914400371,0.999999928868,1.37465347105e-07,-1.14021744718e-06,-0.000377178177568,-0.0431722104549,1.32560728527e-06,4.1447467804,-0.002153,0.020744,0.075806,-0.013337,0.103464,0.093086
468,2710000000.0,-2.37521542346e-06,0.000438804621808,2.00082946917,0.999999930721,1.37968250324e-07,-1.11889087034e-06,-0.000372230979085,-0.0434191636741,2.16484068005e-06,4.16856336594,-0.002153,0.020744,0.075806,-0.013337,0.103464,0.093086
469,2720000000.0,-7.31490750638e-07,0.000435867230408,2.04279343215,0.999999932354,1.38462099952e-07,-1.10016510158e-06,-0.000367820248871,-0.0437121093273,1.51634208034e-06,4.19669771194,-0.002153,0.020744,0.075806,-0.013337,0.103464,0.093086
470,2730000000.0,-1.63044342827e-06,0.000432815519154,2.08500152251,0.999999933988,1.39471306726e-07,-1.08247980402e-06,-0.000363349896614,-0.0439611151814,1.17301942648e-06,4.22069168091,-0.002153,0.020744,0.075806,-0.013337,0.103464,0.093086
471,2740000000.0,2.27880197912e-06,0.000430107116699,2.12748052115,0.999999935452,1.36496188241e-07,-1.06479312384e-06,-0.000359296768563,-0.0442491099238,9.53674315518e-07,4.24827384949,-0.002153,0.020744,0.075806,-0.013337,0.103464,0.093086
472,2750000000.0,-1.88984984106e-07,0.000427360530004,2.17020551469,0.999999936922,1.42995764729e-07,-1.05595235034e-06,-0.000355184050969,-0.0444992668927,6.58035275602e-07,4.27255344391,-0.002153,0.020744,0.075806,-0.013337,0.103464,0.093086
473,2760000000.0,2.15142608795e-06,0.00042484281585,2.2132014165,0.999999938227,1.40443787489e-07,-1.0387860267e-06,-0.00035148855759,-0.044781550765,1.19209289462e-06,4.29949188232,-0.002153,0.020744,0.075806,-0.013337,0.103464,0.093086
474,2770000000.0,1.94915983798e-06,0.000422363285907,2.2564414457,0.99999993954,1.38969116381e-07,-1.0299424652e-06,-0.000347733474678,-0.0450359173119,1.12533564245e-06,4.32407951355,-0.002153,0.020744,0.075806,-0.013337,0.103464,0.093086
475,2780000000.0,2.83992461902e-06,0.000420036260039,2.29994280722,0.999999940736,1.40669272175e-07,-1.02005975122e-06,-0.000344276404407,-0.0453100539744,3.3378600417e-07,4.35039520264,-0.002153,0.020744,0.075806,-0.013337,0.103464,0.093086
476,2790000000.0,1.12841804878e-06,0.000417747418389,2.34369401786,0.9999999419,1.47268456874e-07,-1.01590033774e-06,-0.000340878923653,-0.0455678589642,1.25885003355e-06,4.37521696091,-0.002153,0.020744,0.075806,-0.013337,0.103464,0.093086
477,2800000000.0,5.29807174132e-07,0.000415611197241,2.38770465357,0.999999942972,1.45260139195e-07,-1.00341563208e-06,-0.000337719898539,-0.0458378382027,1.23977656541e-06,4.40101957321,-0.002153,0.020744,0.075806,-0.013337,0.103464,0.093086
478,2810000000.0,-2.67107503049e-06,0.000413551344536,2.4319651384,0.999999944014,1.42853831819e-07,-9.90930814404e-07,-0.000334620462947,-0.0460980832577,1.0776519721e-06,4.42597150803,-0.002153,0.020744,0.075806,-0.013337,0.103464,0.093086
479,2820000000.0,-8.84977183091e-07,0.000411567627452,2.4764793663,0.999999944987,1.41920508123e-07,-9.69603999257e-07,-0.000331699828441,-0.0463653132319,1.19209289462e-06,4.45139884949,-0.002153,0.020744,0.075806,-0.013337,0.103464,0.093086
480,2830000000.0,-5.51564103546e-06,0.00040966027882,2.52124340359,0.999999945932,1.41768394191e-07,-9.53478940413e-07,-0.000328838815967,-0.046624340117,1.19209289462e-06,4.47638654709,-0.002153,0.020744,0.075806,-0.013337,0.103464,0.093086
481,2840000000.0,-5.11959548533e-06,0.000407829298638,2.56625736946,0.99999994683,1.42104358614e-07,-9.40995098175e-07,-0.000326096982542,-0.0468856431544,1.17301942648e-06,4.50156116486,-0.002153,0.020744,0.075806,-0.013337,0.103464,0.093086
482,2850000000.0,-3.53119558127e-06,0.000406074454073,2.61152313142,0.999999947643,1.41558140709e-07,-9.23829665211e-07,-0.00032359360475,-0.0471467375755,6.96182211435e-07,4.52652072906,-0.002153,0.020744,0.075806,-0.013337,0.103464,0.093086
483,2860000000.0,-7.504413162e-07,0.000404395977959,2.65704068948,0.99999994845,1.41010795818e-07,-9.09264977478e-07,-0.000321090194447,-0.0474069491029,1.66893005238e-06,4.55152750015,-0.002153,0.020744,0.075806,-0.013337,0.103464,0.093086
484,2870000000.0,-5.52093716522e-07,0.000402793870304,2.70280618941,0.999999949232,1.41345564142e-07,-9.00422215844e-07,-0.000318646406176,-0.0476647354662,1.78337097534e-06,4.57642745972,-0.002153,0.020744,0.075806,-0.013337,0.103464,0.093086
485,2880000000.0,8.78337587551e-07,0.000401229830455,2.74881967094,0.999999949951,1.38048614651e-07,-8.89497734691e-07,-0.000316381418997,-0.0479241758585,1.34468075386e-06,4.60131788254,-0.002153,0.020744,0.075806,-0.013337,0.103464,0.093086
486,2890000000.0,-2.73637802195e-07,0.000399780226868,2.79508109435,0.999999950665,1.37186751625e-07,-8.74932993e-07,-0.000314116464323,-0.0481838583946,6.67572009228e-07,4.62614774704,-0.002153,0.020744,0.075806,-0.013337,0.103464,0.093086
487,2900000000.0,-1.93529487547e-07,0.000398368807506,2.84159049936,0.999999951318,1.35653367705e-07,-8.58287475591e-07,-0.000312030278229,-0.0484431013465,1.11579890838e-06,4.65094995499,-0.002153,0.020744,0.075806,-0.013337,0.103464,0.093086
488,2910000000.0,1.09879785981e-06,0.000396995455958,2.88834979323,0.999999951948,1.37997617389e-07,-8.39042431922e-07,-0.000310003746677,-0.0487017221749,1.14440911059e-06,4.67571115494,-0.002153,0.020744,0.075806,-0.013337,0.103464,0.093086
489,2920000000.0,-1.71416800754e-07,0.000395698472857,2.93535512172,0.999999952538,1.35822857794e-07,-8.20836299931e-07,-0.00030809639418,-0.0489593781531,1.15394584466e-06,4.70044231415,-0.002153,0.020744,0.075806,-0.013337,0.103464,0.093086
490,2930000000.0,-2.0954776403e-07,0.000394477858208,2.98260843181,0.999999953106,1.37713557946e-07,-8.01591131916e-07,-0.000306248631207,-0.0492171235383,1.34468075341e-06,4.72514104843,-0.002153,0.020744,0.075806,-0.013337,0.103464,0.093086
491,2940000000.0,1.02413429914e-06,0.00039329519495,3.03010590902,0.999999953652,1.35176350946e-07,-7.81824468554e-07,-0.000304460490272,-0.0494739376009,1.53541566217e-06,4.74981164932,-0.002153,0.020744,0.075806,-0.013337,0.103464,0.093086
492,2950000000.0,-3.04725645606e-07,0.000392150832344,3.07784942085,0.999999954158,1.37091092478e-07,-7.62579326685e-07,-0.000302791560896,-0.0497305430472,8.67843595653e-07,4.77445411682,-0.002153,0.020744,0.075806,-0.013337,0.103464,0.093086
493,2960000000.0,-4.21366557646e-07,0.000391082721762,3.12584282154,0.999999954644,1.3424146833e-07,-7.44893197124e-07,-0.000301182253559,-0.0499873831868,1.85012811427e-06,4.79907083511,-0.002153,0.020744,0.075806,-0.013337,0.103464,0.093086
494,2970000000.0,-3.08068481303e-06,0.000390014611181,3.1740803496,0.999999955092,1.31439452822e-07,-7.26686958108e-07,-0.000299692125275,-0.0502433814108,1.16348269241e-06,4.82366275787,-0.002153,0.020744,0.075806,-0.013337,0.103464,0.093086
495,2980000000.0,-4.50791937112e-06,0.000389060936865,3.22256585928,0.999999955538,1.28628559137e-07,-7.09000873123e-07,-0.000298202029499,-0.0504991821945,1.27792350124e-06,4.84823131561,-0.002153,0.020744,0.075806,-0.013337,0.103464,0.093086
496,2990000000.0,-4.64347623108e-06,0.000388107262552,3.27129362882,0.999999955963,1.25058726486e-07,-6.87673538835e-07,-0.000296771490742,-0.0507562346756,9.63211049587e-07,4.87277793884,-0.002153,0.020744,0.075806,-0.013337,0.103464,0.093086
497,3000000000.0,-3.52708473628e-06,0.000387191772457,3.32026747272,0.999999956334,1.21295044342e-07,-6.6530588172e-07,-0.000295519818094,-0.0510121844709,1.45912167593e-06,4.8973031044,-0.002153,0.020744,0.075806,-0.013337,0.103464,0.093086
498,3010000000.0,-4.99309990687e-06,0.000386352534402,3.36948925849,0.999999956738,1.25786414507e-07,-6.46581688413e-07,-0.000294148901366,-0.0512670353055,1.44004820779e-06,4.9218082428,-0.002153,0.020744,0.075806,-0.013337,0.103464,0.093086
499,3020000000.0,-1.35294702375e-06,0.000385513296347,3.41895334386,0.999999957088,1.34085051395e-07,-6.22657135518e-07,-0.000292956818236,-0.0515232011676,1.29699708307e-06,4.94629335403,-0.002153,0.020744,0.075806,-0.013337,0.103464,0.093086
500,3030000000.0,-4.06996183244e-06,0.000384750310328,3.46866151688,0.999999957436,1.40663585946e-07,-6.07054438218e-07,-0.000291764702597,-0.0517758689821,1.4495849423e-06,4.97075986862,-0.002153,0.020744,0.075806,-0.013337,0.103464,0.093086
501,3040000000.0,-1.72053790948e-06,0.000383987440728,3.518615804,0.999999957766,1.33972256788e-07,-5.87286688392e-07,-0.000290632241512,-0.0520323179662,1.17301942648e-06,4.99520874023,-0.002153,0.020744,0.075806,-0.013337,0.103464,0.093086
502,3050000000.0,-1.91379133696e-06,0.000383262638927,3.56881421849,0.99999995806,1.35975837257e-07,-5.71162527441e-07,-0.000289618959475,-0.0522852316499,1.51634208034e-06,5.01963949203,-0.002153,0.020744,0.075806,-0.013337,0.103464,0.093086
503,3060000000.0,-8.55096402574e-07,0.000311622628939,3.61925870735,0.999999958405,1.33482310816e-07,-5.57637783505e-07,-0.00028842684384,-0.0525407157838,0.00708472216502,5.04415559769,-0.002153,0.020744,0.075806,-0.013337,0.103464,0.093086
504,3070000000.0,1.51514090874e-06,0.000252647325397,3.66994354883,0.999999958731,1.35459698292e-07,-5.42553891925e-07,-0.000287294382748,-0.0527924671769,0.0058237076737,5.06832265854,-0.002153,0.020744,0.075806,-0.013337,0.103464,0.093086
505,3080000000.0,1.30297153333e-06,0.000204467796717,3.72087633218,0.999999958731,1.35459698292e-07,-5.42553891925e-07,-0.000287294382748,-0.0530485510826,0.0047507667914,5.09310722351,-0.002153,0.020744,0.075806,-0.013337,0.103464,0.093086
506,3090000000.0,2.42220919233e-06,0.000165443401784,3.77204756091,0.999999959294,1.37898573394e-07,-5.30590904879e-07,-0.000285327408199,-0.0532950051129,0.00383850093931,5.11677598953,-0.002153,0.020744,0.075806,-0.013337,0.103464,0.093086
507,3100000000.0,4.75366589114e-06,0.000134277273904,3.82346867849,0.999999959294,1.37898573394e-07,-5.30590904879e-07,-0.000285327408199,-0.0535558983684,0.00306385033764,5.14194011688,-0.002153,0.020744,0.075806,-0.013337,0.103464,0.093086
508,3110000000.0,8.47142857197e-07,0.000109481741678,3.87512244025,0.999999959786,1.34981841593e-07,-5.2226746261e-07,-0.000283598889287,-0.0537950843573,0.00241097435355,5.16510343552,-0.002153,0.020744,0.075806,-0.013337,0.103464,0.093086
509,3120000000.0,-4.16905137968e-07,8.9225708507e-05,3.92688876921,0.999999960492,1.34280446595e-07,-5.74801936382e-07,-0.000281095478945,-0.0539169162512,0.00185810087714,5.17658376694,-0.002153,0.020744,0.075806,-0.013337,0.103464,0.093086
510,3130000000.0,1.10057457192e-06,7.22121912951e-05,3.97875431464,0.999999961789,1.32227446659e-07,-5.45672425523e-07,-0.000276446325474,-0.0540229491889,0.00139472004957,5.18660736084,-0.002153,0.020744,0.075806,-0.013337,0.103464,0.093086
511,3140000000.0,4.08756527293e-06,5.31768891889e-05,4.03011249313,0.99999996539,1.3513683933e-07,-5.264259334e-07,-0.000263094890328,-0.0535013489425,0.00100678438321,5.13658905029,-0.002153,0.020744,0.075806,-0.013337,0.103464,0.093086
512,3150000000.0,5.54497661653e-06,3.85284656659e-05,4.0816175295,0.999999968381,1.34634157989e-07,-5.23823498022e-07,-0.000251471974065,-0.0536525994539,0.000682201352901,5.15128612518,-0.002153,0.020744,0.075806,-0.013337,0.103464,0.093086
513,3160000000.0,1.93594924269e-06,2.45284754783e-05,4.13287645177,0.999999971946,1.34687958842e-07,-5.08217092077e-07,-0.000236868849906,-0.0533971711993,0.000414924608775,5.12687587738,-0.002153,0.020744,0.075806,-0.013337,0.103464,0.093086
514,3170000000.0,4.12835325392e-06,1.47246755624e-05,4.18431092007,0.999999974686,1.37997288707e-07,-4.92611784864e-07,-0.000225007526691,-0.0535793751478,0.000192518229595,5.14419317245,-0.002153,0.020744,0.075806,-0.013337,0.103464,0.093086
515,3180000000.0,5.34691425003e-06,4.61575109156e-06,4.23547261257,0.99999997789,1.41999601744e-07,-4.78046438435e-07,-0.00021028517462,-0.0532939322293,1.29604341046e-05,5.11688804626,-0.002153,0.020744,0.075806,-0.013337,0.103464,0.093086
516,3190000000.0,4.32076790702e-06,-1.37335155159e-06,4.28684982378,0.999999980124,1.46688888536e-07,-4.7336449005e-07,-0.000199377527611,-0.0535162687302,-0.000133762354381,5.13833856583,-0.002153,0.020744,0.075806,-0.013337,0.103464,0.093086
517,3200000000.0,5.77770490651e-06,-7.70576298592e-06,4.33798862934,0.999999982719,1.43313306999e-07,-4.55676837097e-07,-0.000185906880664,-0.0532703213394,-0.000250577926637,5.11472177505,-0.002153,0.020744,0.075806,-0.013337,0.103464,0.093086
518,3210000000.0,4.71182922013e-06,-1.06812221965e-05,4.38936965504,0.999999984384,1.39363191487e-07,-4.4683229905e-07,-0.00017672776882,-0.0535184331238,-0.000339241028997,5.13851928711,-0.002153,0.020744,0.075806,-0.013337,0.103464,0.093086
519,3220000000.0,2.07617049597e-06,-1.41144264525e-05,4.44053512231,0.99999998638,1.38640824154e-07,-4.32266392791e-07,-0.000165045246559,-0.053297508508,-0.000416297902121,5.11732530594,-0.002153,0.020744,0.075806,-0.013337,0.103464,0.093086
520,3230000000.0,4.2685745214e-06,-1.44577352366e-05,4.4919695906,0.999999987516,1.36828190223e-07,-4.24462903381e-07,-0.000158011910385,-0.0535730645061,-0.000466642377433,5.14364862442,-0.002153,0.020744,0.075806,-0.013337,0.103464,0.093086
521,3240000000.0,8.18464464203e-07,-1.56020978501e-05,4.54321325492,0.999999988986,1.40174228946e-07,-4.08337480995e-07,-0.00014841555801,-0.0533771589398,-0.000512046797668,5.12495231628,-0.002153,0.020744,0.075806,-0.013337,0.103464,0.093086
522,3250000000.0,1.9779058249e-06,-1.38855539262e-05,4.59474689997,0.999999989725,1.3806992738e-07,-4.00014091906e-07,-0.000143349163919,-0.0536762811244,-0.000535364146345,5.1535358429,-0.002153,0.020744,0.075806,-0.013337,0.103464,0.093086
523,3260000000.0,4.86557317458e-06,-1.31989363616e-05,4.64611461468,0.99999999079,1.32794348018e-07,-3.84407864651e-07,-0.000135719769885,-0.0535048805177,-0.000558862695471,5.13713932037,-0.002153,0.020744,0.075806,-0.013337,0.103464,0.093086
524,3270000000.0,4.51529986378e-06,-9.88005195168e-06,4.69779321036,0.999999991214,1.36316217425e-07,-3.85968358441e-07,-0.000132560720229,-0.0538227558136,-0.000562467554119,5.16782140732,-0.002153,0.020744,0.075806,-0.013337,0.103464,0.093086
525,3280000000.0,5.67474121027e-06,-7.89645127952e-06,4.7493268554,0.999999991971,1.39919896336e-07,-3.80246384879e-07,-0.000126719467189,-0.0536740832031,-0.000569686875679,5.15355682373,-0.002153,0.020744,0.075806,-0.013337,0.103464,0.093086
526,3290000000.0,7.21208557763e-06,-3.43320425955e-06,4.80119049359,0.999999992144,1.44080386899e-07,-3.89089241548e-07,-0.000125348558537,-0.0540127493441,-0.000562343571802,5.18615245819,-0.002153,0.020744,0.075806,-0.013337,0.103464,0.093086
527,3300000000.0,2.43151722401e-06,-4.19677242292e-07,4.85292817414,0.999999992658,1.4072402077e-07,-3.89088234354e-07,-0.000121176234935,-0.0538839660585,-0.000559644715395,5.17384815216,-0.002153,0.020744,0.075806,-0.013337,0.103464,0.093086
528,3310000000.0,5.47905064252e-06,4.88280783983e-06,4.90501309251,0.999999992658,1.4072402077e-07,-3.89088234354e-07,-0.000121176234935,-0.0542434863746,-0.00054366112454,5.20817661285,-0.002153,0.020744,0.075806,-0.013337,0.103464,0.093086
529,3320000000.0,5.84437968598e-06,8.5830688441e-06,4.95698925816,0.999999992972,1.43071131165e-07,-3.93249332931e-07,-0.000118553629202,-0.054132733494,-0.000534544000403,5.19765233994,-0.002153,0.020744,0.075806,-0.013337,0.103464,0.093086
530,3330000000.0,6.24991240983e-06,1.44576188141e-05,5.00932784014,0.999999992809,1.4329406911e-07,-4.11454758042e-07,-0.000119924537849,-0.0545051768422,-0.000513372418937,5.23354434967,-0.002153,0.020744,0.075806,-0.013337,0.103464,0.093086
531,3340000000.0,3.77459410572e-06,1.85775570571e-05,5.06157674185,0.999999993001,1.44681734926e-07,-4.15615880822e-07,-0.00011831521419,-0.0544122494757,-0.000499887450133,5.22463512421,-0.002153,0.020744,0.075806,-0.013337,0.103464,0.093086
532,3350000000.0,1.20042683704e-06,2.47573479975e-05,5.1142014106,0.999999992709,1.40644851654e-07,-4.28099313832e-07,-0.000120759002569,-0.0548017583787,-0.000476417539176,5.26192569733,-0.002153,0.020744,0.075806,-0.013337,0.103464,0.093086
533,3360000000.0,3.2552012641e-06,2.91442265699e-05,5.16674792203,0.999999992709,1.40644851654e-07,-4.28099313832e-07,-0.000120759002569,-0.0547250844538,-0.000462036114187,5.25447177887,-0.002153,0.020744,0.075806,-0.013337,0.103464,0.093086
534,3370000000.0,1.25758369052e-06,3.55530064553e-05,5.21968351148,0.999999992388,1.3338172955e-07,-4.35901015672e-07,-0.000123381608301,-0.0551277622581,-0.000436830508989,5.29300642014,-0.002153,0.020744,0.075806,-0.013337,0.103464,0.093086
535,3380000000.0,3.7299904676e-06,4.00543212855e-05,5.27255620156,0.999999992388,1.3338172955e-07,-4.35901015672e-07,-0.000123381608301,-0.0550641603768,-0.000421323755291,5.28685855865,-0.002153,0.020744,0.075806,-0.013337,0.103464,0.093086
536,3390000000.0,5.88503696974e-06,4.65011689776e-05,5.32582563837,0.999999991872,1.36219762581e-07,-4.37982520196e-07,-0.000127494326118,-0.0554756522179,-0.000396604533308,5.32649517059,-0.002153,0.020744,0.075806,-0.013337,0.103464,0.093086
537,3400000000.0,8.55656478649e-06,5.1002483815e-05,5.37904548681,0.999999991872,1.36219762581e-07,-4.37982520196e-07,-0.000127494326118,-0.05542306602,-0.000381736754208,5.32151985168,-0.002153,0.020744,0.075806,-0.013337,0.103464,0.093086
538,3410000000.0,6.97705392838e-06,5.74111472815e-05,5.43267348571,0.99999999119,1.39438701308e-07,-4.69192579178e-07,-0.000132739537568,-0.0558439493179,-0.000357713695849,5.36212444305,-0.002153,0.020744,0.075806,-0.013337,0.103464,0.093086
539,3420000000.0,5.83456572656e-06,6.18362100795e-05,5.48625952522,0.999999991023,1.39179105241e-07,-4.73353907793e-07,-0.000133991234647,-0.0558033920825,-0.000342798215571,5.3581943512,-0.002153,0.020744,0.075806,-0.013337,0.103464,0.093086
540,3430000000.0,4.15620590388e-06,6.81304372847e-05,5.54026329116,0.999999990364,1.432571895e-07,-4.91040198558e-07,-0.000138819205607,-0.056235447526,-0.000319128041157,5.39965009689,-0.002153,0.020744,0.075806,-0.013337,0.103464,0.093086
541,3440000000.0,2.83541006496e-06,7.24028795958e-05,5.59423272668,0.999999990148,1.39058007054e-07,-5.07164438668e-07,-0.000140368923477,-0.0562048740685,-0.000305852881866,5.39665269852,-0.002153,0.020744,0.075806,-0.013337,0.103464,0.093086
542,3450000000.0,4.69390961655e-06,7.85064185003e-05,5.64862946459,0.999999989415,1.37544119039e-07,-5.22249240298e-07,-0.000145494923355,-0.0566450543702,-0.000284385663691,5.43884754181,-0.002153,0.020744,0.075806,-0.013337,0.103464,0.093086
543,3460000000.0,3.0160241522e-06,8.26263567433e-05,5.70299946133,0.999999989154,1.35668219048e-07,-5.18088020429e-07,-0.00014728306436,-0.0566229373217,-0.000272369390587,5.43668270111,-0.002153,0.020744,0.075806,-0.013337,0.103464,0.093086
544,3470000000.0,4.477704735e-06,8.84628389031e-05,5.75780057494,0.999999988367,1.37960793012e-07,-5.26931607181e-07,-0.000152528275799,-0.0570697002113,-0.00025224685669,5.47951841354,-0.002153,0.020744,0.075806,-0.013337,0.103464,0.093086
545,3480000000.0,6.09830266285e-06,9.23919724336e-05,5.8125864306,0.999999988065,1.36333008494e-07,-5.39935342714e-07,-0.000154495234151,-0.0570540949702,-0.000241317742621,5.47809267044,-0.002153,0.020744,0.075806,-0.013337,0.103464,0.093086
546,3490000000.0,6.98438226721e-06,9.79995820671e-05,5.86780908513,0.999999987232,1.36381512916e-07,-5.60221868617e-07,-0.000159800035112,-0.0575050786138,-0.000222673406825,5.52148246765,-0.002153,0.020744,0.075806,-0.013337,0.103464,0.093086
547,3500000000.0,7.96978521578e-06,0.000101699843068,5.92302220343,0.999999986906,1.40376771596e-07,-5.60742939693e-07,-0.000161826599244,-0.0574962645769,-0.000214138024604,5.52071285248,-0.002153,0.020744,0.075806,-0.013337,0.103464,0.093086
548,3510000000.0,8.18094053301e-06,0.00010704039596,5.9786759351,0.999999986023,1.4070415677e-07,-5.86751177478e-07,-0.000167191022236,-0.057951901108,-0.000196247099667,5.56456851959,-0.002153,0.020744,0.075806,-0.013337,0.103464,0.093086
549,3520000000.0,8.47155448724e-06,0.00011047360022,6.03432203779,0.999999985683,1.45791456185e-07,-6.11199308331e-07,-0.000169217570107,-0.0579495616257,-0.000189104073798,5.56437492371,-0.002153,0.020744,0.075806,-0.013337,0.103464,0.093086
550,3530000000.0,1.55374428914e-05,0.000115585280582,6.09041646229,0.999999984771,1.43398541319e-07,-6.41888431463e-07,-0.00017452238731,-0.0584097318351,-0.000172414773261,5.6086230278,-0.002153,0.020744,0.075806,-0.013337,0.103464,0.093086
551,3540000000.0,1.87888409258e-05,0.000118789612316,6.14651084705,0.999999984436,1.49006936179e-07,-6.46571031548e-07,-0.000176429739868,-0.058412682265,-0.00016646385484,5.608938694,-0.002153,0.020744,0.075806,-0.013337,0.103464,0.093086
552,3550000000.0,2.11865326492e-05,0.000123557983901,6.20305347417,0.999999983497,1.53331388864e-07,-6.95986716148e-07,-0.000181674951274,-0.0588720291853,-0.000150308609591,5.65350961685,-0.002153,0.020744,0.075806,-0.013337,0.103464,0.093086
553,3560000000.0,2.35246303717e-05,0.000126495375294,6.25960182302,0.999999983148,1.49344080436e-07,-7.42799652065e-07,-0.000183582287575,-0.0588801838458,-0.000145826343215,5.65427303314,-0.002153,0.020744,0.075806,-0.013337,0.103464,0.093086
554,3570000000.0,2.49891571116e-05,0.000130996690128,6.31660032146,0.999999982206,1.49924727133e-07,-7.83372108737e-07,-0.000188648681627,-0.0593464784324,-0.00013134002802,5.69911050797,-0.002153,0.020744,0.075806,-0.013337,0.103464,0.093086
555,3580000000.0,2.63543605143e-05,0.00013370509259,6.37360835613,0.999999981867,1.5119231167e-07,-8.09900197185e-07,-0.000190436822613,-0.0593571029603,-0.000128383631818,5.70027017593,-0.002153,0.020744,0.075806,-0.013337,0.103464,0.093086
556,3590000000.0,2.68261282912e-05,0.000137939467095,6.43106844764,0.999999980924,1.53906662803e-07,-8.71799149815e-07,-0.000195324415559,-0.0598237589002,-0.000114650720208,5.74532175064,-0.002153,0.020744,0.075806,-0.013337,0.103464,0.093086
557,3600000000.0,3.09931984219e-05,0.000140418997031,6.48854002235,0.999999980596,1.56813744545e-07,-9.31096921175e-07,-0.000196993344969,-0.0598388314247,-0.000112590787467,5.74683094025,-0.002153,0.020744,0.075806,-0.013337,0.103464,0.093086
558,3610000000.0,3.03927485419e-05,0.000144386314791,6.54646933591,0.999999979658,1.65318637724e-07,-9.96638098383e-07,-0.000201702104297,-0.0603060536087,-9.95635928129e-05,5.79205179214,-0.002153,0.020744,0.075806,-0.013337,0.103464,0.093086
559,3620000000.0,3.34876010442e-05,0.000146598787975,6.60441013266,0.999999979332,1.69200259859e-07,-1.03825104208e-06,-0.000203311427923,-0.060324832797,-9.73510686899e-05,5.7938709259,-0.002153,0.020744,0.075806,-0.013337,0.103464,0.093086
560,3630000000.0,3.56095592267e-05,0.000150337233205,6.66281061523,0.9999999784,1.6688396981e-07,-1.1136728737e-06,-0.000207841386159,-0.0607956983149,-8.61358639677e-05,5.83921909332,-0.002153,0.020744,0.075806,-0.013337,0.103464,0.093086
561,3640000000.0,3.75726000783e-05,0.000152282649651,6.72122635577,0.999999978114,1.64949087555e-07,-1.19169498924e-06,-0.00020921228665,-0.0608159005642,-8.46958137117e-05,5.84131479263,-0.002153,0.020744,0.075806,-0.013337,0.103464,0.093086
562,3650000000.0,3.85627466244e-05,0.000155792222358,6.78010178212,0.999999977195,1.6787051621e-07,-1.2691984711e-06,-0.000213563427525,-0.0612859725952,-7.53307322165e-05,5.88675785065,-0.002153,0.020744,0.075806,-0.013337,0.103464,0.093086
563,3660000000.0,4.31687368661e-05,0.000157356262211,6.83899632066,0.999999976939,1.67433251375e-07,-1.32745522136e-06,-0.000214755526922,-0.0613095015287,-7.48252859935e-05,5.88909673691,-0.002153,0.020744,0.075806,-0.013337,0.103464,0.093086
564,3670000000.0,4.3007207104e-05,0.000160865718499,6.89834859804,0.999999976034,1.72861126968e-07,-1.42628534094e-06,-0.000218927850435,-0.0617788024247,-6.94465634306e-05,5.93460416794,-0.002153,0.020744,0.075806,-0.013337,0.103464,0.093086
565,3680000000.0,4.64217916942e-05,0.000162200885825,6.95772380209,0.999999975812,1.73384757995e-07,-1.52511386664e-06,-0.000219941132473,-0.0618052594364,-6.45923573765e-05,5.93716526031,-0.002153,0.020744,0.075806,-0.013337,0.103464,0.093086
566,3690000000.0,4.88833466505e-05,0.000165481586009,7.01755678472,0.999999974925,1.84982783591e-07,-1.6229050912e-06,-0.000223934638621,-0.0622754879296,-5.97095458952e-05,5.98270654678,-0.002153,0.020744,0.075806,-0.013337,0.103464,0.093086
567,3700000000.0,5.10667962743e-05,0.000166625948623,7.07741646878,0.999999974925,1.84982783591e-07,-1.6229050912e-06,-0.000223934638621,-0.062302954495,-5.54370853951e-05,5.98546171188,-0.002153,0.020744,0.075806,-0.013337,0.103464,0.093086
568,3710000000.0,5.23170809146e-05,0.000169677659869,7.13773202417,0.999999973873,1.90167794012e-07,-1.82212404876e-06,-0.000228583792112,-0.0627739205956,-5.13172126384e-05,6.03102111816,-0.002153,0.020744,0.075806,-0.013337,0.103464,0.093086
569,3720000000.0,5.32693955648e-05,0.000170631334182,7.19807618823,0.999999973873,1.90167794012e-07,-1.82212404876e-06,-0.000228583792112,-0.0628039762378,-4.82273098905e-05,6.0339512825,-0.002153,0.020744,0.075806,-0.013337,0.103464,0.093086
570,3730000000.0,5.32885452316e-05,0.000173492357135,7.25887622363,0.999999972896,1.93199546694e-07,-2.05099094158e-06,-0.000232815721369,-0.0632743164897,-4.50706465935e-05,6.07950544357,-0.002153,0.020744,0.075806,-0.013337,0.103464,0.093086
571,3740000000.0,5.68043505993e-05,0.000174255343161,7.31970681467,0.999999972896,1.93199546694e-07,-2.05099094158e-06,-0.000232815721369,-0.0633068308234,-4.17041774208e-05,6.08259153366,-0.002153,0.020744,0.075806,-0.013337,0.103464,0.093086
572,3750000000.0,5.55526359634e-05,0.000176925677806,7.38099514457,0.999999971986,2.03000539212e-07,-2.27413775666e-06,-0.000236690032165,-0.0637758225203,-3.89766682947e-05,6.12812376022,-0.002153,0.020744,0.075806,-0.013337,0.103464,0.093086
573,3760000000.0,5.78373063576e-05,0.000177726731636,7.44231021562,0.999999971986,2.03000539212e-07,-2.27413775666e-06,-0.000236690032165,-0.0638104900718,-3.61919410365e-05,6.13135099411,-0.002153,0.020744,0.075806,-0.013337,0.103464,0.093086
574,3770000000.0,5.91292177745e-05,0.000180015573275,7.50408687974,0.99999997109,2.0320554639e-07,-2.51912855509e-06,-0.000240445115152,-0.0642796829343,-2.87914263031e-05,6.17684936523,-0.002153,0.020744,0.075806,-0.013337,0.103464,0.093086
575,3780000000.0,6.01231591801e-05,0.000180664006621,7.56589215253,0.99999997109,2.0320554639e-07,-2.51912855509e-06,-0.000240445115152,-0.0643146038055,-3.19004066114e-05,6.18019962311,-0.002153,0.020744,0.075806,-0.013337,0.103464,0.093086
576,3790000000.0,6.01640709519e-05,0.000182762159966,7.6281552039,0.999999970325,2.08006558255e-07,-2.76047931325e-06,-0.000243604172808,-0.064784027636,-2.46429444828e-05,6.22565364838,-0.002153,0.020744,0.075806,-0.013337,0.103464,0.093086
577,3800000000.0,5.98871480619e-05,0.000183334341273,7.6904487712,0.999999970325,2.08006558255e-07,-2.76047931325e-06,-0.000243604172808,-0.0648192167282,-2.92396543959e-05,6.22912216187,-0.002153,0.020744,0.075806,-0.013337,0.103464,0.093086
578,3810000000.0,6.24716858937e-05,0.000185356126163,7.75320015679,0.999999969549,2.07826227949e-07,-3.02263481522e-06,-0.000246763214214,-0.0652889832854,-2.23445895253e-05,6.27451467514,-0.002153,0.020744,0.075806,-0.013337,0.103464,0.093086
579,3820000000.0,6.08941016793e-05,0.000185737619184,7.81598487945,0.999999969549,2.07826227949e-07,-3.02263481522e-06,-0.000246763214214,-0.06532587111,-2.51674646279e-05,6.2780880928,-0.002153,0.020744,0.075806,-0.013337,0.103464,0.093086
580,3830000000.0,6.22077752155e-05,0.000187644967813,7.87922455955,0.999999968868,2.10299057002e-07,-3.27022673036e-06,-0.000249505031389,-0.0657956749201,-1.85203552983e-05,6.32340764999,-0.002153,0.020744,0.075806,-0.013337,0.103464,0.093086
581,3840000000.0,6.31837493899e-05,0.000187950092371,7.94249666281,0.999999968868,2.10299057002e-07,-3.27022673036e-06,-0.000249505031389,-0.0658340975642,-2.16197968275e-05,6.3270816803,-0.002153,0.020744,0.075806,-0.013337,0.103464,0.093086
582,3850000000.0,6.32166262591e-05,0.000189666752703,8.00622559102,0.999999968255,2.05124256136e-07,-3.50741369631e-06,-0.000251948819677,-0.0663055703044,-1.60312647508e-05,6.37232160568,-0.002153,0.020744,0.075806,-0.013337,0.103464,0.093086
583,3860000000.0,6.28720744658e-05,0.000189857441001,8.06999075689,0.999999968255,2.05124256136e-07,-3.50741369631e-06,-0.000251948819677,-0.0663479194045,-1.87396999554e-05,6.37608671188,-0.002153,0.020744,0.075806,-0.013337,0.103464,0.093086
584,3870000000.0,6.54386450734e-05,0.000191535917107,8.13420897296,0.999999967681,1.98139045227e-07,-3.68166216036e-06,-0.000254213790639,-0.0668197497725,-1.41811369772e-05,6.42123842239,-0.002153,0.020744,0.075806,-0.013337,0.103464,0.093086
585,3880000000.0,6.38132966486e-05,0.00019157410134,8.19846338695,0.999999967681,1.98139045227e-07,-3.68166216036e-06,-0.000254213790639,-0.0668610483408,-1.63364402406e-05,6.42508840561,-0.002153,0.020744,0.075806,-0.013337,0.103464,0.093086
586,3890000000.0,6.51189352681e-05,0.000193138141181,8.26316894389,0.999999967178,1.88117199984e-07,-3.83042247643e-06,-0.00025618074896,-0.0673305392265,-1.15585326066e-05,6.47014760971,-0.002153,0.020744,0.075806,-0.013337,0.103464,0.093086
587,3900000000.0,6.22028578476e-05,0.000193138141181,8.32791355962,0.999999967178,1.88117199984e-07,-3.83042247643e-06,-0.00025618074896,-0.0673722997308,-1.4915465727e-05,6.47407579422,-0.002153,0.020744,0.075806,-0.013337,0.103464,0.093086
588,3910000000.0,6.22276998143e-05,0.000194587628361,8.39310836468,0.999999966687,1.7726593815e-07,-3.94277212634e-06,-0.00025808810151,-0.0678413361311,-1.00898741966e-05,6.51903533936,-0.002153,0.020744,0.075806,-0.013337,0.103464,0.093086
589,3920000000.0,6.18353838178e-05,0.000194473192096,8.45834322188,0.999999966687,1.7726593815e-07,-3.94277212634e-06,-0.00025808810151,-0.0678840354085,-1.28650663105e-05,6.52303695679,-0.002153,0.020744,0.075806,-0.013337,0.103464,0.093086
590,3930000000.0,6.05794291388e-05,0.000195846543644,8.52402727506,0.999999966301,1.72080123095e-07,-4.04367986773e-06,-0.000259578213564,-0.0683507695794,-8.97407517275e-06,6.56789302826,-0.002153,0.020744,0.075806,-0.013337,0.103464,0.093086
591,3940000000.0,5.89162488112e-05,0.00019569392316,8.58975042676,0.999999966301,1.72080123095e-07,-4.04367986773e-06,-0.000259578213564,-0.0683944523334,-1.17588042494e-05,6.57196474075,-0.002153,0.020744,0.075806,-0.013337,0.103464,0.093086
592,3950000000.0,6.02138525352e-05,0.000196990906261,8.65592186054,0.999999965944,1.62962144057e-07,-4.11545822637e-06,-0.000260949114075,-0.0688610747457,-7.66754146886e-06,6.61671209335,-0.002153,0.020744,0.075806,-0.013337,0.103464,0.093086
593,3960000000.0,5.72698755619e-05,0.000196762033735,8.72213426036,0.999999965944,1.62962144057e-07,-4.11545822637e-06,-0.000260949114075,-0.0689047574997,-1.14440917978e-05,6.6208486557,-0.002153,0.020744,0.075806,-0.013337,0.103464,0.093086
594,3970000000.0,5.72966149761e-05,0.000197982764803,8.78879398864,0.999999965601,1.62850692986e-07,-4.17319490104e-06,-0.000262260425024,-0.0693705156445,-6.01768488284e-06,6.66548490524,-0.002153,0.020744,0.075806,-0.013337,0.103464,0.093086
595,3980000000.0,5.68962640628e-05,0.000197677523825,8.85549472269,0.999999965601,1.62850692986e-07,-4.17319490104e-06,-0.000262260425024,-0.0694144740701,-9.15527289225e-06,6.66968297958,-0.002153,0.020744,0.075806,-0.013337,0.103464,0.093086
596,3990000000.0,5.56620715031e-05,0.000198822002858,8.92264179184,0.999999965319,1.60856178988e-07,-4.21272584011e-06,-0.000263333296599,-0.0698778927326,-5.23567177968e-06,6.71420383453,-0.002153,0.020744,0.075806,-0.013337,0.103464,0.093086
597,4000000000.0,5.40107209304e-05,0.000198478694085,8.98982891314,0.999999965585,1.56786989836e-07,-4.22988951682e-06,-0.000262320030823,-0.0699228197336,-8.6593627211e-06,6.71846294403,-0.002153,0.020744,0.075806,-0.013337,0.103464,0.093086
598,4010000000.0,5.15155963967e-05,0.000199546804648,9.05746332317,0.999999965099,1.49843633113e-07,-4.24445212677e-06,-0.000264167761339,-0.0703855231404,-4.83512849403e-06,6.76286554337,-0.002153,0.020744,0.075806,-0.013337,0.103464,0.093086
599,4020000000.0,5.2417804234e-05,0.000199165311635,9.12513782508,0.99999996535,1.41748318194e-07,-4.24809089644e-06,-0.000263214101364,-0.070431523025,-8.14437862617e-06,6.76718044281,-0.002153,0.020744,0.075806,-0.013337,0.103464,0.093086
600,4030000000.0,4.86816123768e-05,0.000200195237994,9.19325766873,0.999999964878,1.44888461062e-07,-4.26577702828e-06,-0.000265002226054,-0.0708921030164,-3.77655010331e-06,6.81146287918,-0.002153,0.020744,0.075806,-0.013337,0.103464,0.093086
601,4040000000.0,4.83328205547e-05,0.000199775677174,9.26141855789,0.999999965162,1.42383574098e-07,-4.26577621554e-06,-0.000263929354493,-0.0709393769503,-8.24928247489e-06,6.81583309174,-0.002153,0.020744,0.075806,-0.013337,0.103464,0.093086
602,4050000000.0,4.71601194434e-05,0.00020076753572,9.33002482853,0.999999964704,1.39402826838e-07,-4.26889655541e-06,-0.000265657889683,-0.0713996514678,-2.72750844577e-06,6.85999488831,-0.002153,0.020744,0.075806,-0.013337,0.103464,0.093086
603,4060000000.0,4.55702603261e-05,0.000200309674256,9.39867115131,0.999999964988,1.35994972117e-07,-4.2600529816e-06,-0.000264585001872,-0.0714462548494,-6.21795652522e-06,6.8644156456,-0.002153,0.020744,0.075806,-0.013337,0.103464,0.093086
604,4070000000.0,4.31862888846e-05,0.000201225280762,9.46775999471,0.999999964561,1.31672013404e-07,-4.259011747e-06,-0.000266194325503,-0.0719058811665,-1.83105464746e-06,6.90845155716,-0.002153,0.020744,0.075806,-0.013337,0.103464,0.093086
605,4080000000.0,4.0345430115e-05,0.000200729351487,9.53689270475,0.999999964862,1.38327515831e-07,-4.24652979969e-06,-0.000265061831867,-0.0719530358911,-6.51359550963e-06,6.91292572021,-0.002153,0.020744,0.075806,-0.013337,0.103464,0.093086
606,4090000000.0,3.67402560357e-05,0.000201606773768,9.60646507453,0.999999964434,1.28819915179e-07,-4.23248346931e-06,-0.000266671155522,-0.0724126398563,-8.86917122855e-07,6.95683765411,-0.002153,0.020744,0.075806,-0.013337,0.103464,0.093086
607,4100000000.0,3.65026173341e-05,0.0002011108445,9.67608039706,0.999999964736,1.34280976338e-07,-4.18203036373e-06,-0.000265538678152,-0.0724661275744,-5.7792663033e-06,6.96135902405,-0.002153,0.020744,0.075806,-0.013337,0.103464,0.093086
608,4110000000.0,3.16563759313e-05,0.000201950082559,9.74613820047,0.999999964339,1.15430177028e-07,-4.12064799088e-06,-0.000267028790285,-0.0729301571846,-9.44137526826e-07,7.00514268875,-0.002153,0.020744,0.075806,-0.013337,0.103464,0.093086
609,4120000000.0,3.01876022419e-05,0.000201339717023,9.81623800301,0.999999964657,1.06734719618e-07,-4.04158295914e-06,-0.000265836690938,-0.0729792714119,-5.25474524693e-06,7.00971412659,-0.002153,0.020744,0.075806,-0.013337,0.103464,0.093086
610,4130000000.0,2.79644456e-05,0.000202178955078,9.88677651167,0.99999996426,8.91486284793e-08,-3.96043523132e-06,-0.000267326819319,-0.0734371617436,-4.76837158647e-07,7.05336952209,-0.002153,0.020744,0.075806,-0.013337,0.103464,0.093086
611,4140000000.0,2.52844015876e-05,0.000201568589546,9.95735888696,0.999999964579,8.60816367076e-08,-3.8720090515e-06,-0.000266134719948,-0.073485724628,-4.60624687681e-06,7.05798816681,-0.002153,0.020744,0.075806,-0.013337,0.103464,0.093086
612,4150000000.0,2.18499746296e-05,0.00020233145915,10.0283799684,0.999999964213,8.2996039541e-08,-3.79086515917e-06,-0.00026750562045,-0.0739416182041,-9.44137526826e-07,7.10151433945,-0.002153,0.020744,0.075806,-0.013337,0.103464,0.093086
613,4160000000.0,2.55876410478e-05,0.000201530405317,10.0994449959,0.999999964548,8.32143675633e-08,-3.69827866714e-06,-0.000266253931538,-0.0739914029837,-4.41551219588e-06,7.10618019104,-0.002153,0.020744,0.075806,-0.013337,0.103464,0.093086
614,4170000000.0,2.47961634727e-05,0.000202522263862,10.1709448753,0.999999964182,7.95698561484e-08,-3.6171346211e-06,-0.000267624832041,-0.0744431391358,-3.84330724179e-06,7.14957427979,-0.002153,0.020744,0.075806,-0.013337,0.103464,0.093086
615,4180000000.0,2.35279338909e-05,0.0002016830258,10.2424905286,0.999999964516,8.19163882837e-08,-3.53651211799e-06,-0.00026637314312,-0.0744910687208,-3.18527213583e-06,7.15428829193,-0.002153,0.020744,0.075806,-0.013337,0.103464,0.093086
616,4190000000.0,2.15450506715e-05,0.000202636700124,10.3144710736,0.999999964135,8.37592030178e-08,-3.46057102985e-06,-0.000267803649386,-0.0749434232712,-3.6239623582e-06,7.19754886627,-0.002153,0.020744,0.075806,-0.013337,0.103464,0.093086
617,4200000000.0,2.29098381581e-05,0.000201797462068,10.3864964785,0.999999964501,8.14156247975e-08,-3.37838681641e-06,-0.000266432748917,-0.0749935954809,-2.47001639941e-06,7.20230817795,-0.002153,0.020744,0.075806,-0.013337,0.103464,0.093086
618,4210000000.0,2.73843946985e-05,0.000202712952159,10.4589558612,0.999999964135,7.92530107652e-08,-3.3060856906e-06,-0.000267803649413,-0.0754432305694,-2.62260437101e-06,7.24543762207,-0.002153,0.020744,0.075806,-0.013337,0.103464,0.093086
619,4220000000.0,2.75677088695e-05,0.000201835646291,10.531460978,0.999999964502,7.91666351363e-08,-3.23742594804e-06,-0.000266432748936,-0.0754911080003,-1.63078300464e-06,7.25024080276,-0.002153,0.020744,0.075806,-0.013337,0.103464,0.093086
620,4230000000.0,3.08707244443e-05,0.000202712952156,10.6043991189,0.999999964136,8.48218018601e-08,-3.18281196499e-06,-0.000267803649405,-0.0759378373623,-2.58445743562e-06,7.29323768616,-0.002153,0.020744,0.075806,-0.013337,0.103464,0.093086
621,4240000000.0,3.37069203198e-05,0.000201835646301,10.6773820801,0.999999964518,8.78522332659e-08,-3.13287838938e-06,-0.000266373143134,-0.0759865343571,-9.05990590994e-07,7.29808473587,-0.002153,0.020744,0.075806,-0.013337,0.103464,0.093086
622,4250000000.0,3.58582595865e-05,0.000202674884349,10.7507970721,0.999999964184,9.70433406966e-08,-3.09647055424e-06,-0.000267624832028,-0.0764313712716,-1.58309933429e-06,7.34094810486,-0.002153,0.020744,0.075806,-0.013337,0.103464,0.093086
623,4260000000.0,3.37183564625e-05,0.000201759277843,10.8242577982,0.99999996455,1.03470291279e-07,-3.06162218e-06,-0.000266253931528,-0.0764807835221,-1.13487237874e-06,7.34583806992,-0.002153,0.020744,0.075806,-0.013337,0.103464,0.093086
624,4270000000.0,3.85424421125e-05,0.000202598515898,10.8981487273,0.999999964216,1.05521544835e-07,-3.03457512824e-06,-0.000267505620443,-0.0769262760878,-1.81198117888e-06,7.38856935501,-0.002153,0.020744,0.075806,-0.013337,0.103464,0.093086
625,4280000000.0,3.90554207144e-05,0.000201644841589,10.9720872978,0.999999964582,1.09832252404e-07,-3.01064929897e-06,-0.00026613471995,-0.0769747793674,-1.3542174897e-06,7.3935008049,-0.002153,0.020744,0.075806,-0.013337,0.103464,0.093086
626,4290000000.0,3.89232720224e-05,0.000202484079637,11.0464540846,0.999999964264,1.17404805489e-07,-3.00440966805e-06,-0.000267326819319,-0.0774157568812,-1.4877318808e-06,7.43609905243,-0.002153,0.020744,0.075806,-0.013337,0.103464,0.093086
627,4300000000.0,4.21189293647e-05,0.000201530405317,11.1208676386,0.999999964629,1.16714540033e-07,-2.99608694937e-06,-0.000265955902584,-0.0774668306112,-1.6498565869e-06,7.44107294083,-0.002153,0.020744,0.075806,-0.013337,0.103464,0.093086
628,4310000000.0,4.46893240493e-05,0.000202369643372,11.1957075016,0.999999964296,1.22346553721e-07,-3.00493112337e-06,-0.000267207607739,-0.0779064074159,-2.10762027697e-06,7.48353672028,-0.002153,0.020744,0.075806,-0.013337,0.103464,0.093086
629,4320000000.0,4.67531697481e-05,0.000201415969059,11.2705959994,0.999999964661,1.29477843724e-07,-3.01377538081e-06,-0.000265836690979,-0.0779568105936,-1.21116636453e-06,7.48855257034,-0.002153,0.020744,0.075806,-0.013337,0.103464,0.093086
630,4330000000.0,4.82116174538e-05,0.000202217022892,11.345908899,0.999999964359,1.33712268702e-07,-3.03822363917e-06,-0.000266969184572,-0.0783953145146,-1.6403197387e-06,7.53088188171,-0.002153,0.020744,0.075806,-0.013337,0.103464,0.093086
631,4340000000.0,4.91535838449e-05,0.000201263348572,11.4212713869,0.99999996474,1.4036647189e-07,-3.06059160798e-06,-0.000265538678282,-0.0784462019801,-1.23977656674e-06,7.53593921661,-0.002153,0.020744,0.075806,-0.013337,0.103464,0.093086
632,4350000000.0,4.95000845859e-05,0.000202026334588,11.497057323,0.999999964438,1.48479897655e-07,-3.09596403231e-06,-0.000266671155607,-0.0788833871484,-1.86920158329e-06,7.57813453674,-0.002153,0.020744,0.075806,-0.013337,0.103464,0.093086
633,4360000000.0,4.93301039768e-05,0.000201072660278,11.5728928475,0.999999964803,1.52959712951e-07,-3.12821423348e-06,-0.000265300255104,-0.0789352878928,-1.79290771074e-06,7.58323335648,-0.002153,0.020744,0.075806,-0.013337,0.103464,0.093086
634,4370000000.0,5.23890804516e-05,0.000201835646298,11.6491509062,0.999999964518,1.58295373531e-07,-3.17190829813e-06,-0.000266373142908,-0.0793716534972,-1.57356260022e-06,7.62529325485,-0.002153,0.020744,0.075806,-0.013337,0.103464,0.093086
635,4380000000.0,5.49315755762e-05,0.000200920039784,11.7254585534,0.999999964882,1.61634102491e-07,-3.21612159992e-06,-0.000265002226152,-0.0794228166342,-2.01225270891e-06,7.63043260574,-0.002153,0.020744,0.075806,-0.013337,0.103464,0.093086
636,4390000000.0,5.68984697296e-05,0.000201721210033,11.8021877414,0.999999964585,4.2843972814e-10,-1.60986001591e-06,-0.000266134720279,-0.0802933424711,-1.46865841266e-06,7.67235326767,-0.002153,0.020744,0.075806,-0.013337,0.103464,0.093086
637,4400000000.0,6.21733052668e-05,0.000200729351491,11.8789656039,0.999999964997,-2.66343169186e-07,1.02019595161e-07,-0.000264585002421,-0.0803914442658,-1.34468075563e-06,7.67753267288,-0.002153,0.020744,0.075806,-0.013337,0.103464,0.093086
638,4410000000.0,6.30679817633e-05,0.000201492221091,11.956164014,0.999999964711,-5.33159894123e-07,1.98710927241e-06,-0.000265657889216,-0.0808982104063,-6.58035276935e-07,7.71932172775,-0.002153,0.020744,0.075806,-0.013337,0.103464,0.093086
639,4420000000.0,7.10751576918e-05,0.000200538546785,12.0334120919,0.999999965084,-7.99984725741e-07,3.92317208847e-06,-0.000264227364618,-0.0809823721647,-1.25885003444e-06,7.72454214096,-0.002153,0.020744,0.075806,-0.013337,0.103464,0.093086
640,4430000000.0,7.47220392654e-05,0.000201263348565,12.1110788102,0.99999996479,-8.00532212075e-07,5.97047796053e-06,-0.000265300250807,-0.0814730226994,-7.72476199451e-07,7.76619625092,-0.002153,0.020744,0.075806,-0.013337,0.103464,0.093086
641,4440000000.0,8.16470652154e-05,0.000200347858481,12.1887970638,0.999999965154,-1.06737473488e-06,7.99912675842e-06,-0.000263869740786,-0.0815459266305,3.81469702937e-07,7.77145671844,-0.002153,0.020744,0.075806,-0.013337,0.103464,0.093086
642,4450000000.0,8.42316614822e-05,0.000201072660275,12.2669320504,0.999999964836,-1.06793409438e-06,1.00745210047e-05,-0.000265002215925,-0.0820250809193,5.14984093591e-07,7.81297445297,-0.002153,0.020744,0.075806,-0.013337,0.103464,0.093086
643,4460000000.0,9.01043344399e-05,0.000200118985962,12.3451176188,0.999999965175,-1.06845570313e-06,1.2105699957e-05,-0.000263631313271,-0.0820916891098,1.39236442376e-06,7.81827735901,-0.002153,0.020744,0.075806,-0.013337,0.103464,0.093086
644,4470000000.0,9.54610004413e-05,0.000200843787752,12.4237190064,0.999999964897,-1.06900930452e-06,1.41556067292e-05,-0.000264584987343,-0.0825621113181,1.12533564245e-06,7.85965919495,-0.002153,0.020744,0.075806,-0.013337,0.103464,0.093086
645,4480000000.0,0.000104095810798,0.000199928297661,12.5023719293,0.99999996526,-1.06951265894e-06,1.61477744093e-05,-0.000263094873164,-0.0826272591948,1.48773187858e-06,7.8650021553,-0.002153,0.020744,0.075806,-0.013337,0.103464,0.093086
646,4490000000.0,0.000104585633444,0.000200386042703,12.5814405919,0.999999964943,-1.070050616e-06,1.81186187149e-05,-0.000264167742628,-0.0830877274275,2.85148621382e-06,7.90624904633,-0.002153,0.020744,0.075806,-0.013337,0.103464,0.093086
647,4500000000.0,0.000108363532789,0.0001994704362,12.6605598363,0.999999965268,-1.07052294168e-06,2.00109179857e-05,-0.000262796840118,-0.0831472501159,-2.03132617704e-06,7.91163110733,-0.002153,0.020744,0.075806,-0.013337,0.103464,0.093086
648,4510000000.0,0.000115479644862,0.000200195237994,12.7400911251,0.999999964977,-1.0710402869e-06,2.189957868e-05,-0.000263750514359,-0.0836094468832,-1.15394584732e-06,7.95274448395,-0.002153,0.020744,0.075806,-0.013337,0.103464,0.093086
649,4520000000.0,0.00012203954627,0.000199203495868,12.8196758167,0.999999965313,-1.07147765971e-06,2.36868078652e-05,-0.000262320006177,-0.0836641192436,-7.91549668033e-07,7.95816755295,-0.002153,0.020744,0.075806,-0.013337,0.103464,0.093086
650,4530000000.0,0.000124298747323,0.000199928297668,12.8996734269,0.999999965004,-1.07196434307e-06,2.54433508693e-05,-0.000263333270085,-0.0841175168753,3.81469700272e-08,7.99914121628,-0.002153,0.020744,0.075806,-0.013337,0.103464,0.093086
651,4540000000.0,0.000129836092761,0.000198974623338,12.9797225725,0.99999996532,-1.07236563907e-06,2.7108865339e-05,-0.000261962367815,-0.0841730386019,-8.58306856699e-08,8.00460529327,-0.002153,0.020744,0.075806,-0.013337,0.103464,0.093086
652,4550000000.0,0.000138721583248,0.000199661240913,13.0601828089,0.99999996504,-1.07281440531e-06,2.87239277881e-05,-0.000262856436563,-0.0846185982227,-7.43865941288e-07,8.04544448853,-0.002153,0.020744,0.075806,-0.013337,0.103464,0.093086
653,4560000000.0,0.000143256237365,0.000198707566597,13.1406945012,0.99999996537,-1.07316929099e-06,3.02385990926e-05,-0.000261425928671,-0.0846717655659,1.81198116955e-07,8.05094909668,-0.002153,0.020744,0.075806,-0.013337,0.103464,0.093086
654,4570000000.0,0.000147324546184,0.000199355999939,13.2216172445,0.999999965044,-1.07358607843e-06,3.17022984782e-05,-0.000262498798673,-0.0851140469313,7.15255736417e-07,8.09165000916,-0.002153,0.020744,0.075806,-0.013337,0.103464,0.093086
655,4580000000.0,0.000150856508988,0.000198440509845,13.3025914835,0.999999965358,-1.0739035064e-06,3.30843319454e-05,-0.000261127896704,-0.0851697400212,1.17301942559e-06,8.09719562531,-0.002153,0.020744,0.075806,-0.013337,0.103464,0.093086
656,4590000000.0,0.000157756481528,0.00019908905961,13.383974906,0.999999965095,-8.07966008876e-07,3.44236457905e-05,-0.000261962369131,-0.0856121703982,1.3160705512e-06,8.13776016235,-0.002153,0.020744,0.075806,-0.013337,0.103464,0.093086
657,4600000000.0,0.000164110175731,0.000198097201064,13.4654107777,0.999999965409,-8.08246378603e-07,3.56813641006e-05,-0.000260591467631,-0.0856672152877,2.22206108269e-06,8.14334583282,-0.002153,0.020744,0.075806,-0.013337,0.103464,0.093086
658,4610000000.0,0.000200553176953,0.000198783818629,13.5472542039,0.999999964545,-3.20893396888e-06,5.02570763679e-05,-0.000261485405845,-0.0896167829633,7.91549664925e-07,8.18370819092,-0.002153,0.020744,0.075806,-0.013337,0.103464,0.093086
659,4620000000.0,0.000236439967495,0.000197563087568,13.6291510329,0.999999964016,-5.07708503955e-06,6.56784031035e-05,-0.000260054711372,-0.0900667533278,2.23159781676e-06,8.18935012817,-0.002153,0.020744,0.075806,-0.013337,0.103464,0.093086
660,4630000000.0,0.000283363477841,0.000198402325626,13.7114533104,0.99999996247,-6.67947850203e-06,8.26299495116e-05,-0.000261127381063,-0.091104067862,-2.56538396748e-06,8.22963142395,-0.002153,0.020744,0.075806,-0.013337,0.103464,0.093086
661,4640000000.0,0.000329720845215,0.000197372399271,13.7938099445,0.99999996124,-8.015435563e-06,9.99111842574e-05,-0.000259756232078,-0.0914261862636,2.18391414641e-06,8.23529243469,-0.002153,0.020744,0.075806,-0.013337,0.103464,0.093086
662,4650000000.0,0.000379495883962,0.000198020949032,13.8765709939,0.999999959009,-9.0855700266e-06,0.00011828988003,-0.000260590423407,-0.0923856720328,-3.43322740015e-07,8.27543640137,-0.002153,0.020744,0.075806,-0.013337,0.103464,0.093086
663,4660000000.0,0.000432529202428,0.000196990906261,13.959385486,0.999999957064,-9.88904639737e-06,0.000136422975521,-0.000259159627112,-0.0926116332412,-1.23023983356e-06,8.28114509583,-0.002153,0.020744,0.075806,-0.013337,0.103464,0.093086
664,4670000000.0,0.000485175634239,0.00019760127179,14.0426034002,0.999999954098,-1.04266693446e-05,0.000155137550272,-0.000260053429838,-0.0934748798609,-1.63078300464e-06,8.32115650177,-0.002153,0.020744,0.075806,-0.013337,0.103464,0.093086
665,4680000000.0,0.000548689461837,0.00019687647,14.1258767436,0.999999951451,-1.09638216653e-05,0.000173473432437,-0.000258622639969,-0.0936745032668,-2.79426558514e-06,8.3269033432,-0.002153,0.020744,0.075806,-0.013337,0.103464,0.093086
666,4690000000.0,0.000604217219049,0.000197448651303,14.2095505688,0.999999947843,-1.15013859709e-05,0.000191836908093,-0.000259576012661,-0.0944088920951,1.8310546448e-06,8.36677932739,-0.002153,0.020744,0.075806,-0.013337,0.103464,0.093086
667,4700000000.0,0.000670612372048,0.000196418724954,14.2932798233,0.999999944679,-1.15056614437e-05,0.000209454325629,-0.000258145287504,-0.0945237204432,1.90734850136e-07,8.37256622314,-0.002153,0.020744,0.075806,-0.013337,0.103464,0.093086
668,4710000000.0,0.000729031386996,0.000197029090486,14.377408606,0.999999940572,-1.17767497406e-05,0.00022705363477,-0.000259158306525,-0.095250852406,-5.81741347538e-07,8.41230583191,-0.002153,0.020744,0.075806,-0.013337,0.103464,0.093086
669,4720000000.0,0.000794483442675,0.000196037231941,14.4615946854,0.999999936989,-1.1780750474e-05,0.000243780558066,-0.000257787209055,-0.0953316166997,-1.58309933518e-06,8.41813659668,-0.002153,0.020744,0.075806,-0.013337,0.103464,0.093086
670,4730000000.0,0.000867237186455,0.000196838402182,14.5461785447,0.999999932653,-1.15188705282e-05,0.000260146975133,-0.000258621550163,-0.0959644988179,-2.10762027653e-06,8.45773887634,-0.002153,0.020744,0.075806,-0.013337,0.103464,0.093086
671,4740000000.0,0.00093940492259,0.00019569392316,14.6308186677,0.99999992887,-1.1522486676e-05,0.000275590171891,-0.000257250471809,-0.0960252434015,2.68936150771e-06,8.46361064911,-0.002153,0.020744,0.075806,-0.013337,0.103464,0.093086
672,4750000000.0,0.00100744080803,0.000196380540729,14.7158554977,0.999999924416,-1.12602657784e-05,0.000290574553875,-0.000258084841172,-0.0966209992766,-2.2983549588e-06,8.50307273865,-0.002153,0.020744,0.075806,-0.013337,0.103464,0.093086
673,4760000000.0,0.00107869524384,0.000195465050634,14.8009495848,0.999999920582,-1.09971673488e-05,0.000304652292412,-0.000256713847082,-0.0966751649976,-6.58035276935e-07,8.50898838043,-0.002153,0.020744,0.075806,-0.013337,0.103464,0.093086
674,4770000000.0,0.00115345674206,0.000196151668206,14.8864395047,0.999999916124,-1.07346235707e-05,0.000318238515137,-0.000257607852836,-0.0972448065877,-3.71932970644e-07,8.54831409454,-0.002153,0.020744,0.075806,-0.013337,0.103464,0.093086
675,4780000000.0,0.00122380780989,0.000195197993889,14.9719866022,0.99999991237,-1.04711071548e-05,0.000330944101788,-0.00025617729837,-0.0972922891378,-1.62124637271e-07,8.55426883698,-0.002153,0.020744,0.075806,-0.013337,0.103464,0.093086
676,4790000000.0,0.00129387131442,0.000195846543651,15.0579275857,0.99999990799,-9.94196718179e-06,0.000343138859832,-0.00025725024119,-0.0978408232331,9.15527322398e-07,8.59345626831,-0.002153,0.020744,0.075806,-0.013337,0.103464,0.093086
677,4800000000.0,0.00137096785969,0.000194854685102,15.1439258659,0.999999904388,-9.6780522974e-06,0.000354609093566,-0.000255700487582,-0.0979133173823,1.29699708307e-06,8.59945201874,-0.002153,0.020744,0.075806,-0.013337,0.103464,0.093086
678,4810000000.0,0.00145160126436,0.000195465050638,15.2303171181,0.999999900205,-9.41488359713e-06,0.000365554521251,-0.000256654155189,-0.0984381064773,1.13487237652e-06,8.6385011673,-0.002153,0.020744,0.075806,-0.013337,0.103464,0.093086
679,4820000000.0,0.00155834016164,0.000194549560547,15.3167658657,0.999999891695,-1.12845767793e-05,0.000388990799662,-0.000255282308929,-0.101970203221,1.3160705512e-06,8.6444978714,-0.002153,0.020744,0.075806,-0.013337,0.103464,0.093086
680,4830000000.0,0.00167243040869,0.000194969121363,15.4036076251,0.999999881122,-1.31557029963e-05,0.000414714194653,-0.000256115710085,-0.10338807106,1.15394584466e-06,8.68339443207,-0.002153,0.020744,0.075806,-0.013337,0.103464,0.093086
681,4840000000.0,0.00178973920612,0.000194129883315,15.4905066415,0.999999870208,-1.44934094368e-05,0.000440998144313,-0.000254743860385,-0.103939056396,-8.39233394778e-07,8.68946075439,-0.002153,0.020744,0.075806,-0.013337,0.103464,0.093086
682,4850000000.0,0.00191442915032,0.000194663996808,15.5777958088,0.999999857369,-1.58324417686e-05,0.00046871201286,-0.000255577299104,-0.105159632862,-4.67300397489e-07,8.72822475433,-0.002153,0.020744,0.075806,-0.013337,0.103464,0.093086
683,4860000000.0,0.00204231778021,0.00019386282656,15.6651441403,0.999999844416,-1.69040372444e-05,0.000496278055059,-0.000254145827814,-0.105557747185,-1.76429739618e-06,8.73434257507,-0.002153,0.020744,0.075806,-0.013337,0.103464,0.093086
684,4870000000.0,0.00217760742156,0.000194435124286,15.7528807155,0.999999829641,-1.79770047593e-05,0.000524738790547,-0.000255038857987,-0.106695018709,3.12805172875e-06,8.77296924591,-0.002153,0.020744,0.075806,-0.013337,0.103464,0.093086
685,4880000000.0,0.00231609078243,0.000193443265747,15.8406769318,0.99999981504,-1.85159557847e-05,0.00055247686354,-0.000253667164697,-0.106974676251,1.52587885438e-07,8.77912807465,-0.002153,0.020744,0.075806,-0.013337,0.103464,0.093086
686,4890000000.0,0.00245816563054,0.000194015447054,15.9288608752,0.999999799065,-1.87898135185e-05,0.000580298652178,-0.00025450095947,-0.1079165712,1.43051137158e-07,8.81761837006,-0.002153,0.020744,0.075806,-0.013337,0.103464,0.093086
687,4900000000.0,0.00259961970782,0.00019306177273,16.01710442,0.999999783495,-1.90621186135e-05,0.000607101428455,-0.00025312937759,-0.108124867082,-2.67028811507e-07,8.82382297516,-0.002153,0.020744,0.075806,-0.013337,0.103464,0.093086
688,4910000000.0,0.00274849962735,0.000193557702001,16.1057338243,0.999999766661,-1.93357764976e-05,0.000633858993728,-0.00025402276894,-0.109041400254,-1.49726861487e-06,8.86217403412,-0.002153,0.020744,0.075806,-0.013337,0.103464,0.093086
689,4920000000.0,0.00290057326644,0.000192718463943,16.1944228697,0.999999750523,-1.90750306616e-05,0.000659361262405,-0.00025265155116,-0.109189763665,-1.87873831781e-06,8.86842250824,-0.002153,0.020744,0.075806,-0.013337,0.103464,0.093086
690,4930000000.0,0.00305626818975,0.000193328829482,16.2834967813,0.999999733534,-1.90819856938e-05,0.000684290438215,-0.000253604751596,-0.109960690141,-1.34468075608e-06,8.90663528442,-0.002153,0.020744,0.075806,-0.013337,0.103464,0.093086
691,4940000000.0,0.00321133737607,0.000192413339391,16.3726307711,0.999999717319,-1.8820729595e-05,0.000708086099286,-0.000252233569633,-0.110129669309,-5.05447362187e-07,8.91292667389,-0.002153,0.020744,0.075806,-0.013337,0.103464,0.093086
692,4950000000.0,0.00337385226931,0.000193023704927,16.4621487133,0.999999700537,-1.85608339247e-05,0.000731121343722,-0.000253067795211,-0.110837124288,5.43594352642e-07,8.9510011673,-0.002153,0.020744,0.075806,-0.013337,0.103464,0.093086
693,4960000000.0,0.0035357364594,0.000191955477931,16.5517272104,0.99999968483,-1.80326487321e-05,0.0007527708052,-0.000251696894167,-0.110923603177,1.57356259844e-06,8.95733642578,-0.002153,0.020744,0.075806,-0.013337,0.103464,0.093086
694,4970000000.0,0.00370128166306,0.000192756648168,16.6416867592,0.999999668591,-1.77722673547e-05,0.000773775908836,-0.000252531185851,-0.111636348069,-2.48908986755e-06,8.99526977539,-0.002153,0.020744,0.075806,-0.013337,0.103464,0.093086
695,4980000000.0,0.00386617133269,0.000191612169147,16.7317092472,0.999999653583,-1.72434574889e-05,0.000793401472308,-0.000251100753778,-0.111704677343,2.84194948019e-06,9.00164985657,-0.002153,0.020744,0.075806,-0.013337,0.103464,0.093086
696,4990000000.0,0.00403855637094,0.000192413339388,16.8221109193,0.999999638338,-1.67162077477e-05,0.000812141261116,-0.000251935327592,-0.112326703966,-2.90870662134e-06,9.03944301605,-0.002153,0.020744,0.075806,-0.013337,0.103464,0.093086
697,5000000000.0,0.00420646641865,0.000191383296624,16.9125759675,0.999999624373,-1.61868330019e-05,0.000829584283865,-0.000250564561562,-0.112390071154,2.71797170903e-06,9.0458688736,-0.002153,0.020744,0.075806,-0.013337,0.103464,0.093086
698,5010000000.0,0.00437807720927,0.000191955477931,17.003418253,0.99999961029,-1.56590593797e-05,0.000846151931594,-0.000251399208436,-0.112984977663,6.38961749289e-07,9.08352184296,-0.002153,0.020744,0.075806,-0.013337,0.103464,0.093086
699,5020000000.0,0.00455284199008,0.000191001803614,17.0943239941,0.999999597384,-1.51291953654e-05,0.000861660524432,-0.000250088130283,-0.113083600998,-7.62939453836e-08,9.0899887085,-0.002153,0.020744,0.075806,-0.013337,0.103464,0.093086
700,5030000000.0,0.00473512697033,0.000191535917107,17.1856065353,0.999999580859,-1.51345675382e-05,0.000880409806368,-0.000250862705195,-0.114729560912,-1.23977658362e-07,9.12748908997,-0.002153,0.020744,0.075806,-0.013337,0.103464,0.093086
701,5040000000.0,0.00492819988769,0.000190658494834,17.2769521348,0.999999563081,-1.56711143275e-05,0.000900731598948,-0.000249550623652,-0.115540854633,-1.04904175124e-07,9.13399124146,-0.002153,0.020744,0.075806,-0.013337,0.103464,0.093086
702,5050000000.0,0.00512498844647,0.000191230792552,17.3686735411,0.999999542471,-1.6210100137e-05,0.000923093965789,-0.000250384245821,-0.116923511028,-9.05990590994e-07,9.17135334015,-0.002153,0.020744,0.075806,-0.013337,0.103464,0.093086
703,5060000000.0,0.00532874548581,0.000190391554497,17.4604584427,0.99999952106,-1.7013730678e-05,0.000946305248618,-0.000249191014589,-0.117574974895,1.62124634606e-07,9.17790222168,-0.002153,0.020744,0.075806,-0.013337,0.103464,0.093086
704,5070000000.0,0.00554385707964,0.000190887367356,17.5526182769,0.999999497557,-1.75530656931e-05,0.000970646776988,-0.000249845730423,-0.118756271899,5.72204553961e-07,9.21512699127,-0.002153,0.020744,0.075806,-0.013337,0.103464,0.093086
705,5080000000.0,0.00575830320712,0.000189933693033,17.6448420038,0.999999473788,-1.80905667324e-05,0.000995137034348,-0.000248593082128,-0.119251184165,-5.62667823445e-07,9.2217206955,-0.002153,0.020744,0.075806,-0.013337,0.103464,0.093086
706,5090000000.0,0.00597649973918,0.000190429622307,17.7374381998,0.999999448452,-1.86302491024e-05,0.00102006633282,-0.000249426552013,-0.12027888,-1.81198117932e-06,9.25880813599,-0.002153,0.020744,0.075806,-0.013337,0.103464,0.093086
707,5100000000.0,0.00620165481948,0.000189743004743,17.8300988448,0.999999423626,-1.89012130463e-05,0.00104444156635,-0.000248054903675,-0.120604284108,-2.50816333569e-06,9.26544952393,-0.002153,0.020744,0.075806,-0.013337,0.103464,0.093086
708,5110000000.0,0.00643438969321,0.000190162681971,17.9231305681,0.999999397674,-1.91744636359e-05,0.00106880227551,-0.000248888622741,-0.121522970498,2.55584700337e-06,9.30239772797,-0.002153,0.020744,0.075806,-0.013337,0.103464,0.093086
709,5120000000.0,0.0066664342698,0.00018936151173,18.0162285683,0.99999937262,-1.91788154241e-05,0.00109230359183,-0.000247517272374,-0.121773257852,-1.04904175124e-07,9.30908298492,-0.002153,0.020744,0.075806,-0.013337,0.103464,0.093086
710,5130000000.0,0.00689845448987,0.000189743004739,18.1096951833,0.999999346844,-1.91854814383e-05,0.0011154663321,-0.000248351292254,-0.122604824603,1.59263606569e-06,9.34589099884,-0.002153,0.020744,0.075806,-0.013337,0.103464,0.093086
711,5140000000.0,0.00714122788393,0.00018894195091,18.2032281942,0.999999322239,-1.91894190409e-05,0.00113760901987,-0.000246979967774,-0.122806698084,-2.30789169198e-06,9.35262489319,-0.002153,0.020744,0.075806,-0.013337,0.103464,0.093086
712,5150000000.0,0.00738398188767,0.000189475947991,18.2971293432,0.999999297017,-1.89293851212e-05,0.00115940682277,-0.000247754716593,-0.123625770211,-1.15394584732e-06,9.38929080963,-0.002153,0.020744,0.075806,-0.013337,0.103464,0.093086
713,5160000000.0,0.00762986008462,0.000188636709936,18.3910968087,0.999999273206,-1.86666329229e-05,0.00118004465632,-0.000246443330095,-0.123781479895,-5.14984096256e-07,9.39607048035,-0.002153,0.020744,0.075806,-0.013337,0.103464,0.093086
714,5170000000.0,0.00788335780432,0.00018917082344,18.4854315381,0.999999249325,-1.84061538043e-05,0.00119995588012,-0.000247218136298,-0.124483086169,9.44137523717e-07,9.43259525299,-0.002153,0.020744,0.075806,-0.013337,0.103464,0.093086
715,5180000000.0,0.00812853624613,0.000188293401148,18.5798324648,0.999999226797,-1.78766007551e-05,0.00121885791334,-0.000245907143802,-0.124659389257,6.00814813012e-07,9.43942260742,-0.002153,0.020744,0.075806,-0.013337,0.103464,0.093086
716,5190000000.0,0.00838516856574,0.000188827514648,18.6745987879,0.999999204402,-1.76156910605e-05,0.00123694497586,-0.00024668200817,-0.125315725803,6.96182210547e-07,9.47580528259,-0.002153,0.020744,0.075806,-0.013337,0.103464,0.093086
717,5200000000.0,0.00864110065585,0.000187950092371,18.7694323413,0.99999918363,-1.70858096866e-05,0.00125385484481,-0.000245549885373,-0.125428035855,6.5803527427e-07,9.48268032074,-0.002153,0.020744,0.075806,-0.013337,0.103464,0.093086
718,5210000000.0,0.00888942410425,0.000188484205864,18.8646301389,0.999999168078,-1.57580621147e-05,0.00126608737365,-0.00024620702533,-0.12503901124,3.24249269212e-07,9.51893234253,-0.002153,0.020744,0.075806,-0.013337,0.103464,0.093086
719,5220000000.0,0.00913704732314,0.000187606783584,18.9598951669,0.99999915469,-1.46939297978e-05,0.00127685988426,-0.000245016117324,-0.125006765127,1.13487237652e-06,9.52585792542,-0.002153,0.020744,0.075806,-0.013337,0.103464,0.093086
720,5230000000.0,0.00939233476029,0.000188178964887,19.0555231674,0.999999142415,-1.36318283755e-05,0.00128632320827,-0.000245672995341,-0.125423803926,7.05719001459e-07,9.56195831299,-0.002153,0.020744,0.075806,-0.013337,0.103464,0.093086
721,5240000000.0,0.00964691203561,0.000187263474796,19.151219352,0.999999131986,-1.2833306111e-05,0.00129465056942,-0.000244422228295,-0.125442937016,8.86917120191e-07,9.56892871857,-0.002153,0.020744,0.075806,-0.013337,0.103464,0.093086
722,5250000000.0,0.00989390550005,0.000187797471881,19.2472773966,0.999999122308,-1.2037231428e-05,0.00130195534493,-0.00024525763873,-0.125885680318,7.62939405874e-07,9.60488605499,-0.002153,0.020744,0.075806,-0.013337,0.103464,0.093086
723,5260000000.0,0.0101478227496,0.000186881981787,19.3434032278,0.999999114385,-1.09717274309e-05,0.00130829151477,-0.000243888040558,-0.125909373164,1.3828276888e-06,9.61190319061,-0.002153,0.020744,0.075806,-0.013337,0.103464,0.093086
724,5270000000.0,0.0104094389805,0.000187377911061,19.439888694,0.99999910697,-1.04415356825e-05,0.00131379664146,-0.000244723143903,-0.126358300447,-1.90734876782e-08,9.64771652222,-0.002153,0.020744,0.075806,-0.013337,0.103464,0.093086
725,5280000000.0,0.0106627011704,0.000186424236748,19.5364436952,0.999999101043,-9.64194722541e-06,0.00131855995068,-0.000243353248322,-0.126408323646,-8.48770129735e-07,9.65478229523,-0.002153,0.020744,0.075806,-0.013337,0.103464,0.093086
726,5290000000.0,0.0109198627498,0.000186996418051,19.6333568611,0.999999095517,-9.11139975407e-06,0.00132259357727,-0.000244188377857,-0.126845434308,-1.16348269508e-06,9.69045257568,-0.002153,0.020744,0.075806,-0.013337,0.103464,0.093086
727,5300000000.0,0.0111763042351,0.000186157179996,19.7303391646,0.999999091362,-8.31138852164e-06,0.00132599930148,-0.000242758901209,-0.12689948082,-1.90734853689e-07,9.69756698608,-0.002153,0.020744,0.075806,-0.013337,0.103464,0.093086
728,5310000000.0,0.0114328405519,0.000186691293489,19.8276786396,0.999999087404,-7.78055370143e-06,0.00132883138496,-0.000243594049412,-0.127342060208,1.81198116067e-07,9.73309326172,-0.002153,0.020744,0.075806,-0.013337,0.103464,0.093086
729,5320000000.0,0.0116924588495,0.000185890123245,19.9250884839,0.999999084599,-7.24667149848e-06,0.00133119375917,-0.000242223824536,-0.127410337329,5.62667819892e-07,9.74025535583,-0.002153,0.020744,0.075806,-0.013337,0.103464,0.093086
730,5330000000.0,0.011948379836,0.000186386052519,20.0228533142,0.999999081869,-6.98192842991e-06,0.00133309224078,-0.000243058629762,-0.127856343985,1.28746034811e-06,9.77563762665,-0.002153,0.020744,0.075806,-0.013337,0.103464,0.093086
731,5340000000.0,0.0122111948105,0.00018535612617,20.1206887921,0.999999080138,-6.44784417797e-06,0.00133464162477,-0.000241688430544,-0.127935916185,2.26974475304e-06,9.78284931183,-0.002153,0.020744,0.075806,-0.013337,0.103464,0.093086
732,5350000000.0,0.0124703224063,0.000186080927961,20.2188783023,0.999999078345,-5.91661516142e-06,0.00133583524049,-0.000242523598315,-0.128383591771,-3.43322744989e-06,9.81808567047,-0.002153,0.020744,0.075806,-0.013337,0.103464,0.093086
733,5360000000.0,0.0127325245337,0.000185012817386,20.3171388972,0.999999077394,-5.64893003047e-06,0.00133676415457,-0.000241331850488,-0.128468945622,2.09808353979e-06,9.82534980774,-0.002153,0.020744,0.075806,-0.013337,0.103464,0.093086
734,5370000000.0,0.0129910541807,0.000185546814464,20.415752094,0.999999077394,-5.64893003047e-06,0.00133676415457,-0.000241331850488,-0.128918856382,-1.98364250625e-06,9.86044025421,-0.002153,0.020744,0.075806,-0.013337,0.103464,0.093086
735,5380000000.0,0.0132488463521,0.000184707576409,20.5144360973,0.999999075978,-4.84954479313e-06,0.00133792232948,-0.000240796477565,-0.129015535116,-1.59263606925e-06,9.8677520752,-0.002153,0.020744,0.075806,-0.013337,0.103464,0.093086
736,5390000000.0,0.0135144169635,0.000185203505676,20.6134721066,0.999999075978,-4.84954479313e-06,0.00133792232948,-0.000240796477565,-0.129464581609,-1.0681152407e-06,9.90269947052,-0.002153,0.020744,0.075806,-0.013337,0.103464,0.093086
737,5400000000.0,0.0137067574005,0.00018440245185,20.7125798363,0.999999119841,1.34990997142e-06,0.0013048321334,-0.000240268280515,-0.120744146407,-1.05857850663e-06,9.91017150879,-0.002153,0.020744,0.075806,-0.013337,0.103464,0.093086
738,5410000000.0,0.0138802021589,0.000184822012667,20.8120366713,0.99999917132,7.07522300925e-06,0.00126463058107,-0.000240871496305,-0.119004696608,-8.39233394778e-07,9.94496154785,-0.002153,0.020744,0.075806,-0.013337,0.103464,0.093086
739,5420000000.0,0.0140528895769,0.000184020958848,20.9115662201,0.99999922679,1.20647158425e-05,0.0012201624441,-0.000239744761924,-0.117590636015,-1.37329095828e-06,9.95237922668,-0.002153,0.020744,0.075806,-0.013337,0.103464,0.093086
740,5430000000.0,0.0142028742752,0.000184478703886,21.0114441192,0.999999285055,1.65861681766e-05,0.00117123516448,-0.000240464706936,-0.11631681025,-1.39236442642e-06,9.98704242706,-0.002153,0.020744,0.075806,-0.013337,0.103464,0.093086
741,5440000000.0,0.0143444726523,0.000183830270544,21.1113946527,0.99999934372,2.03338428913e-05,0.00112023323234,-0.000239216355533,-0.115286432207,-1.39236442642e-06,9.99451637268,-0.002153,0.020744,0.075806,-0.013337,0.103464,0.093086
742,5450000000.0,0.0144748291624,0.000184097210877,21.2116919869,0.999999401792,2.36170755556e-05,0.00106690630619,-0.000239934013707,-0.114373452961,1.95503230138e-06,10.0290355682,-0.002153,0.020744,0.075806,-0.013337,0.103464,0.093086
743,5460000000.0,0.0146006014263,0.000183334341273,21.3120631871,0.999999457494,2.61084392372e-05,0.00101358741793,-0.000238683560568,-0.113765180111,-2.44140619809e-06,10.0365552902,-0.002153,0.020744,0.075806,-0.013337,0.103464,0.093086
744,5470000000.0,0.0147189686613,0.00018386833835,21.4127790822,0.999999510722,2.82589307284e-05,0.000959383782833,-0.000239459071326,-0.113106630743,-1.08718870884e-06,10.0709285736,-0.002153,0.020744,0.075806,-0.013337,0.103464,0.093086
745,5480000000.0,0.0148327466839,0.000183067284526,21.5135693201,0.999999560594,2.97547811123e-05,0.000906223781827,-0.000238087995481,-0.112687468529,-3.14712510274e-07,10.078499794,-0.002153,0.020744,0.075806,-0.013337,0.103464,0.093086
746,5490000000.0,0.0149353151196,0.00018352502957,21.6147032594,0.999999606989,3.10019506102e-05,0.000853216174895,-0.000238921936271,-0.112224936485,3.81469702049e-07,10.1127243042,-0.002153,0.020744,0.075806,-0.013337,0.103464,0.093086
747,5500000000.0,0.0150332918598,0.000182723975739,21.7159117801,0.999999649673,3.17245124475e-05,0.000801955413238,-0.00023772883289,-0.111946649849,-1.8119811962e-07,10.120347023,-0.002153,0.020744,0.075806,-0.013337,0.103464,0.093086
748,5510000000.0,0.0151277028924,0.000183181720786,21.8174626512,0.999999688602,3.22804397362e-05,0.000751616853107,-0.000238383292017,-0.111647315323,-2.86102306291e-08,10.15442276,-0.002153,0.020744,0.075806,-0.013337,0.103464,0.093086
749,5520000000.0,0.0152137015314,0.000182380666956,21.9190886598,0.999999723922,3.24224717548e-05,0.000703453190947,-0.000237189729137,-0.11147043854,-1.8119811962e-07,10.1620998383,-0.002153,0.020744,0.075806,-0.013337,0.103464,0.093086
750,5530000000.0,0.0152999650932,0.000182838412004,22.0210555091,0.999999755849,3.25484103081e-05,0.000656256426257,-0.000237843921436,-0.111174970865,-1.43051140711e-07,10.1960277557,-0.002153,0.020744,0.075806,-0.013337,0.103464,0.093086
