frame,timestamp,acc x (m/s^2),acc y (m/s^2),acc z (m/s^2),gyro x (rad/s),gyro y (rad/s),gyro z (rad/s),x (Ground truth),y (Ground truth),z (Ground truth),yaw (Ground Truth),pitch (Ground Truth),roll (Ground Truth)
197,5.0024138612207,0,0,9.8100004196167,0,0,0,-23.8005466461182,61.2423858642578,0.001868057181127,-0.596735239028931,0,0
198,5.01241386099719,0,0,9.8100004196167,0,0,0,-23.8005466461182,61.2423858642578,0.001868057181127,-0.596735239028931,0,0
199,5.02241386077367,0,0,9.8100004196167,0,0,0,-23.8005466461182,61.2423858642578,0.001868057181127,-0.596735239028931,0,0
200,5.03241386055015,0,0,9.8100004196167,0,0,0,-23.8005466461182,61.2423858642578,0.001868057181127,-0.596735239028931,0,0
201,5.04241386032663,0,0,9.8100004196167,0,0,0,-23.8005466461182,61.2423858642578,0.001868057181127,-0.596735239028931,0,0
202,5.05241386010312,0,0,9.8100004196167,0,0,0,-23.8005466461182,61.2423858642578,0.001868057181127,-0.596735239028931,0,0
203,5.0624138598796,0,0,9.8100004196167,0,0,0,-23.8005466461182,61.2423858642578,0.001868057181127,-0.596735239028931,0,0
204,5.07241385965608,0,0,9.8100004196167,0,0,0,-23.8005466461182,61.2423858642578,0.001868057181127,-0.596735239028931,0,0
205,5.08241385943256,0,0,9.8100004196167,0,0,0,-23.8005466461182,61.2423858642578,0.001868057181127,-0.596735239028931,0,0
206,5.09241385920905,0,0,9.8100004196167,0,0,0,-23.8005466461182,61.2423858642578,0.001868057181127,-0.596735239028931,0,0
207,5.10241385898553,0,0,9.8100004196167,0,0,0,-23.8005466461182,61.2423858642578,0.001868057181127,-0.596735239028931,0,0
208,5.11241385876201,0,0,9.8100004196167,0,0,0,-23.8005466461182,61.2423858642578,0.001868057181127,-0.596735239028931,0,0
209,5.12241385853849,0,0,9.8100004196167,0,0,0,-23.8005466461182,61.2423858642578,0.001868057181127,-0.596735239028931,0,0
210,5.13241385831498,0,0,9.8100004196167,0,0,0,-23.8005466461182,61.2423858642578,0.001868057181127,-0.596735239028931,0,0
211,5.14241385809146,0,0,9.8100004196167,0,0,0,-23.8005466461182,61.2423858642578,0.001868057181127,-0.596735239028931,0,0
212,5.15241385786794,0,0,9.8100004196167,0,0,0,-23.8005466461182,61.2423858642578,0.001868057181127,-0.596735239028931,0,0
213,5.16241385764442,0,0,9.8100004196167,0,0,0,-23.8005466461182,61.2423858642578,0.001868057181127,-0.596735239028931,0,0
214,5.17241385742091,0,0,9.8100004196167,0,0,0,-23.8005466461182,61.2423858642578,0.001868057181127,-0.596735239028931,0,0
215,5.18241385719739,0,0,9.8100004196167,0,0,0,-23.8005466461182,61.2423858642578,0.001868057181127,-0.596735239028931,0,0
216,5.19241385697387,0,0,9.8100004196167,0,0,0,-23.8005466461182,61.2423858642578,0.001868057181127,-0.596735239028931,0,0
217,5.20241385675035,0,0,9.8100004196167,0,0,0,-23.8005466461182,61.2423858642578,0.001868057181127,-0.596735239028931,0,0
218,5.21241385652684,0,0,9.8100004196167,0,0,0,-23.8005466461182,61.2423858642578,0.001868057181127,-0.596735239028931,0,0
219,5.22241385630332,0,0,9.8100004196167,0,0,0,-23.8005466461182,61.2423858642578,0.001868057181127,-0.596735239028931,0,0
220,5.2324138560798,0,0,9.8100004196167,0,0,0,-23.8005466461182,61.2423858642578,0.001868057181127,-0.596735239028931,0,0
221,5.24241385585628,0,0,9.8100004196167,0,0,0,-23.8005466461182,61.2423858642578,0.001868057181127,-0.596735239028931,0,0
222,5.25241385563277,0,0,9.8100004196167,0,0,0,-23.8005466461182,61.2423858642578,0.001868057181127,-0.596735239028931,0,0
223,5.26241385540925,0,0,9.8100004196167,0,0,0,-23.8005466461182,61.2423858642578,0.001868057181127,-0.596735239028931,0,0
224,5.27241385518573,0,0,9.18782424926758,8.29694556614413E-07,-3.47604867556583E-07,9.90720838700554E-11,-23.8005466461182,61.2423858642578,0.001805839478038,-0.596735239028931,0,0
225,5.28241385496222,0,0,9.90536689758301,8.51490426612145E-07,-3.52850406670768E-07,-8.77187211756336E-13,-23.8005466461182,61.2423858642578,0.001753158518113,-0.596735239028931,0,0
226,5.2924138547387,0,0,9.89392375946045,1.79934886546107E-07,3.77395981132622E-09,7.4402095595616E-11,-23.8005466461182,61.2423858642578,0.001708869938739,-0.596735239028931,0,0
227,5.30241385451518,0,0,9.88286304473877,8.53720337090635E-07,3.54077201336622E-07,3.64518276674275E-11,-23.8005466461182,61.2423858642578,0.001671867328696,-0.596735239028931,0,0
228,5.31241385429166,0,0,9.87294101715088,-3.79171751774265E-08,1.04604014339316E-08,-2.07856717948651E-11,-23.8005466461182,61.2423858642578,0.001641159062274,-0.596735239028931,0,0
229,5.32241385406815,0,0,9.86531448364258,8.4029557001486E-07,-3.38189948934087E-07,1.03311803556494E-12,-23.8005466461182,61.2423858642578,0.001615982037038,-0.596735239028931,0,0
230,5.33241385384463,0,0,9.85768508911133,-4.93101381948691E-08,1.65640123839239E-08,-3.35731442646647E-13,-23.8005466461182,61.2423858642578,0.001595573383383,-0.596735239028931,0,0
231,5.34241385362111,0,0,9.85119819641113,-7.60861311732697E-08,2.60745007807373E-08,4.53726292648504E-12,-23.8005466461182,61.2423858642578,0.001579284667969,-0.596735239028931,0,0
232,5.35241385339759,0,0,9.84585952758789,-1.00812762582336E-07,3.27251541420992E-08,5.81093159701673E-12,-23.8005466461182,61.2423858642578,0.001566581660882,-0.596735239028931,0,0
233,5.36241385317408,0,0,9.84051704406738,-1.25345763990481E-07,4.17318268830513E-08,6.07665653906686E-12,-23.8005466461182,61.2423858642578,0.001556930481456,-0.596735239028931,0,0
234,5.37241385295056,0,0,9.83594036102295,7.65390169021885E-08,4.83376005888658E-08,7.33582639078634E-12,-23.8005466461182,61.2423858642578,0.001549873268232,-0.596735239028931,0,0
235,5.38241385272704,0,0,9.83212661743164,-1.76405080765107E-07,5.73932510405939E-08,-9.60206220090853E-12,-23.8005466461182,61.2423858642578,0.001545028644614,-0.596735239028931,0,0
236,5.39241385250352,0,0,9.82869148254395,-2.13182872244033E-07,6.12372232922098E-08,4.195421787756E-11,-23.8005466461182,61.2423858642578,0.001542053185403,-0.596735239028931,0,0
237,5.40241385228001,0,0,9.82602214813232,-2.26862766794511E-07,7.06973679598377E-08,5.52710099910314E-11,-23.8005466461182,61.2423858642578,0.001540679950267,-0.596735239028931,0,0
238,5.41241385205649,0,0,9.82373332977295,-2.79911738232386E-08,7.40068983873243E-08,3.00469024661076E-12,-23.8005466461182,61.2423858642578,0.001540679950267,-0.596735239028931,0,0
239,5.42241385183297,0,0,9.8203010559082,6.26166524853034E-07,-2.69862255208864E-07,-4.22714988013162E-11,-23.8005466461182,61.2423858642578,0.001541709876619,-0.596735239028931,0,0
240,5.43241385160945,0,0,9.81953620910645,-2.9025326853116E-07,8.68279528276617E-08,1.11553405401921E-11,-23.8005466461182,61.2423858642578,0.001543693477288,-0.596735239028931,0,0
241,5.44241385138594,0,0,9.81724739074707,5.75246872358548E-07,-2.56556432987054E-07,-3.43215941778219E-11,-23.8005466461182,61.2423858642578,0.001546401996166,-0.596735239028931,0,0
242,5.45241385116242,0,0,9.8161039352417,-1.1710329061998E-07,9.72650937569597E-08,2.41979561388383E-11,-23.8005466461182,61.2423858642578,0.00154972076416,-0.596735239028931,0,0
243,5.4624138509389,0,0,9.81457901000977,-1.42190657470564E-07,1.05357955249019E-07,-3.05763574182105E-12,-23.8005466461182,61.2423858642578,0.0015534972772,-0.596735239028931,0,0
244,5.47241385071538,0,0,9.81343269348145,-3.89839414083326E-07,1.14404670625845E-07,-1.30580130042191E-11,-23.8005466461182,61.2423858642578,0.001557617099024,-0.596735239028931,0,0
245,5.48241385049187,0,0,9.81267166137695,-4.2291063095945E-07,1.16355252544054E-07,3.99219823865593E-11,-23.8005466461182,61.2423858642578,0.001562004094012,-0.596735239028931,0,0
246,5.49241385026835,0,0,9.8119068145752,-4.27999907515186E-07,1.23914503546985E-07,-1.43038358935144E-11,-23.8005466461182,61.2423858642578,0.001566581660882,-0.596735239028931,0,0
247,5.50241385004483,0,0,9.81114387512207,4.22863109861282E-07,-2.25600288672467E-07,1.50616741301235E-11,-23.8005466461182,61.2423858642578,0.001571273780428,-0.596735239028931,0,0
248,5.51241384982131,0,0,9.81038284301758,-4.8545729214311E-07,1.23061937529201E-07,4.7032849836981E-11,-23.8005466461182,61.2423858642578,0.001576003967784,-0.596735239028931,0,0
249,5.5224138495978,0,0,9.81038284301758,-4.95839742598037E-07,1.25000653383722E-07,2.68829680738492E-11,-23.8005466461182,61.2423858642578,0.001580772339366,-0.596735239028931,0,0
250,5.53241384937428,0,0,9.80961799621582,-5.13717907324462E-07,1.26926906318658E-07,3.11962400356691E-11,-23.8005466461182,61.2423858642578,0.001585502643138,-0.596735239028931,0,0
251,5.54241384915076,0,0,9.80961799621582,-5.3025723900646E-07,1.23662616147158E-07,2.61217159014393E-11,-23.8005466461182,61.2423858642578,0.001590194646269,-0.596735239028931,0,0
252,5.55241384892724,0,0,9.80885696411133,1.24530299672188E-06,-5.80692983476183E-07,-3.06884240242056E-11,-23.8005466461182,61.2423858642578,0.001594772329554,-0.596735239028931,0,0
253,5.56241384870373,0,0,9.80885696411133,-5.36374443527166E-07,1.19390264785579E-07,1.33077993069719E-11,-23.8005466461182,61.2423858642578,0.001599235460162,-0.596735239028931,0,0
254,5.57241384848021,0,0,9.80885410308838,-5.51036578144704E-07,1.27493834156667E-07,-1.24627808073541E-11,-23.8005466461182,61.2423858642578,0.001603584270924,-0.596735239028931,0,0
255,5.58241384825669,0,0,9.80885791778564,3.15021992491893E-07,-2.3100338353288E-07,1.67601488243463E-11,-23.8005466461182,61.2423858642578,0.00160781852901,-0.596735239028931,0,0
256,5.59241384803318,0,0,9.80809211730957,-5.583158895206E-07,1.19936544251686E-07,4.03214441002664E-11,-23.8005466461182,61.2423858642578,0.001611862098798,-0.596735239028931,0,0
257,5.60241384780966,0,0,9.8088550567627,9.52953087107744E-07,1.29208260091218E-07,-1.55633506082609E-10,-23.8005466461182,61.2423858642578,0.001615791232325,-0.596735239028931,0,0
258,5.61241384758614,0,0,9.80809497833252,3.01285581372213E-07,-2.22032127794591E-07,6.42704778286429E-11,-23.8005466461182,61.2423858642578,0.001619529677555,-0.596735239028931,0,0
259,5.62241384736262,0,0,9.8084716796875,2.93853958055479E-07,-2.23460816073384E-07,-1.5557360955043E-11,-23.8005466461182,61.2423858642578,0.001623115502298,-0.596735239028931,0,0
260,5.63241384713911,0,0,9.8084774017334,2.98753690231024E-07,4.74484949108955E-07,6.99104593659961E-11,-23.8005466461182,61.2423858642578,0.001626548706554,-0.596735239028931,0,0
261,5.64241384691559,0,0,9.8084716796875,-5.97207417740719E-07,1.30913335283367E-07,2.51557663588642E-11,-23.8005466461182,61.2423858642578,0.001629829406738,-0.596735239028931,0,0
262,5.65241384669207,0,0,9.80809497833252,-6.15956651017768E-07,1.34217714276019E-07,-4.21306878273242E-11,-23.8005466461182,61.2423858642578,0.00163291930221,-0.596735239028931,0,0
263,5.66241384646855,0,0,9.80847454071045,1.14151714569744E-06,-5.70124768728419E-07,-2.07357908621475E-10,-23.8005466461182,61.2423858642578,0.001635856577195,-0.596735239028931,0,0
264,5.67241384624504,0,0,9.80847358703613,-6.12502901731205E-07,1.27571155417172E-07,2.72669997691821E-10,-23.8005466461182,61.2423858642578,0.001638641348109,-0.596735239028931,0,0
265,5.68241384602152,0,0,9.78215408325195,0,0,0,-23.8005466461182,61.2423858642578,0.001638641348109,-0.596735239028931,0,0
266,5.692413845798,0,0,9.8100004196167,-8.76121021065046E-07,3.46277204243961E-07,9.68289615155271E-11,-23.8005466461182,61.2423858642578,0.001638641348109,-0.596735239028931,0,0
267,5.70241384557448,0,0,9.82487869262695,1.57143382750746E-08,-1.64985785033878E-08,-1.39910333318838E-10,-23.8005466461182,61.2423858642578,0.001640129019506,-0.596735239028931,0,0
268,5.71241384535097,0,0,9.80542182922363,3.65825947312715E-08,-3.11689767329426E-08,2.70992672746218E-11,-23.8005466461182,61.2423858642578,0.001641159062274,-0.596735239028931,0,0
269,5.72241384512745,0,0,9.8111457824707,-8.43300540509517E-07,3.14174343429841E-07,1.06889330719895E-10,-23.8005466461182,61.2423858642578,0.001642303424887,-0.596735239028931,0,0
270,5.73241384490393,0,0,9.81114387512207,-8.39941151298262E-07,3.06652310655409E-07,-3.94657362345896E-11,-23.8005466461182,61.2423858642578,0.001643562223762,-0.596735239028931,0,0
271,5.74241384468041,0,0,9.81076431274414,6.36438812762208E-08,-5.89983990550991E-08,-1.11178899420139E-10,-23.8005466461182,61.2423858642578,0.001644897391088,-0.596735239028931,0,0
272,5.7524138444569,0,0,9.81038093566895,9.89639488579996E-07,-4.28489329351578E-07,-6.32028457348E-11,-23.8005466461182,61.2423858642578,0.00164627074264,-0.596735239028931,0,0
273,5.76241384423338,0,0,9.81038093566895,-7.33237072836346E-07,2.67272838527788E-07,2.45358983130828E-10,-23.8005466461182,61.2423858642578,0.001647682162002,-0.596735239028931,0,0
274,5.77241384400986,0,0,9.81000137329102,1.36718597332219E-07,-8.60112479017516E-08,-1.62752700205715E-10,-23.8005466461182,61.2423858642578,0.001649093581364,-0.596735239028931,0,0
275,5.78241384378634,0,0,9.8100004196167,1.68978715464618E-06,-9.52439975776542E-08,-8.49698089666617E-11,-23.8005466461182,61.2423858642578,0.001650505000725,-0.596735239028931,0,0
276,5.79241384356283,0,0,9.80999946594238,1.81268802634804E-07,-1.0307684306099E-07,1.8197418572008E-10,-23.8005466461182,61.2423858642578,0.001651916420087,-0.596735239028931,0,0
277,5.80241384333931,0,0,9.80961990356445,-7.01608769304585E-07,2.41320464056116E-07,4.62431898329285E-11,-23.8005466461182,61.2423858642578,0.001653289771639,-0.596735239028931,0,0
278,5.81241384311579,0,0,9.8100004196167,1.82146109750647E-07,-1.16729630406098E-07,-1.54054824452743E-10,-23.8005466461182,61.2423858642578,0.001654663006775,-0.596735239028931,0,0
279,5.82241384289227,0,0,9.80961990356445,2.06053286433416E-07,-1.3187798231229E-07,2.35166330853076E-11,-23.8005466461182,61.2423858642578,0.001655998174101,-0.596735239028931,0,0
280,5.83241384266876,0,0,9.80923652648926,2.14856669344954E-07,-1.38492126211531E-07,8.13799375110058E-12,-23.8005466461182,61.2423858642578,0.001657257089391,-0.596735239028931,0,0
281,5.84241384244524,0,0,9.8100004196167,2.20947327989052E-07,-1.47925504734303E-07,8.8845684281802E-13,-23.8005466461182,61.2423858642578,0.001658515888266,-0.596735239028931,0,0
282,5.85241384222172,0,0,9.80923843383789,-6.57337807297154E-07,1.96943076957723E-07,9.75147393389442E-11,-23.8005466461182,61.2423858642578,0.001659698435105,-0.596735239028931,0,0
283,5.8624138419982,0,0,9.80961799621582,-6.67665005948948E-07,1.95574656913777E-07,-3.96439270300419E-11,-23.8005466461182,61.2423858642578,0.001660842914134,-0.596735239028931,0,0
284,5.87241384177469,0,0,9.80961990356445,1.96927899764887E-07,-1.55857620143252E-07,-1.07918216030178E-10,-23.8005466461182,61.2423858642578,0.001661949092522,-0.596735239028931,0,0
285,5.88241384155117,0,0,9.80961799621582,2.0881397233552E-07,-1.63912829975743E-07,3.5826230870839E-11,-23.8005466461182,61.2423858642578,0.0016630172031,-0.596735239028931,0,0
286,5.89241384132765,0,0,9.79931926727295,-6.74316197546432E-07,1.80496741108982E-07,1.07946311611595E-10,-23.8005466461182,61.2423858642578,0.0016630172031,-0.596735239028931,0,0
287,5.90241384110414,0,0,9.82945442199707,1.93536550341378E-07,-1.69979230690842E-07,-1.35200073358988E-10,-23.8005466461182,61.2423858642578,0.001664962735958,-0.596735239028931,0,0
288,5.91241384088062,0,0,9.79054641723633,1.73880584952713E-06,-1.72129091424722E-07,-7.55397550067372E-11,-23.8005466461182,61.2423858642578,0.001664962735958,-0.596735239028931,0,0
289,5.9224138406571,0,0,9.82792854309082,-6.8566708932849E-07,1.83361706262986E-07,2.84590462307222E-10,-23.8005466461182,61.2423858642578,0.00166675564833,-0.596735239028931,0,0
290,5.93241384043358,0,0,9.79207229614258,1.87871037837795E-07,-1.72789214047953E-07,-1.90449628290068E-10,-23.8005466461182,61.2423858642578,0.00166675564833,-0.596735239028931,0,0
291,5.94241384021007,0,0,9.82564163208008,1.7552797260123E-07,-1.69488970414022E-07,1.51078316523723E-11,-23.8005466461182,61.2423858642578,0.001668319688179,-0.596735239028931,0,0
292,5.95241383998655,0,0,9.79435920715332,8.32313503451587E-07,1.79869687144674E-07,-1.38175755559633E-12,-23.8005466461182,61.2423858642578,0.001668319688179,-0.596735239028931,0,0
293,5.96241383976303,0,0,9.82411575317383,-6.9321566797953E-07,1.7445218247758E-07,1.36148953222559E-10,-23.8005466461182,61.2423858642578,0.00166973110754,-0.596735239028931,0,0
294,5.97241383953951,0,0,9.79588508605957,1.54252575157443E-07,-1.69887968581861E-07,-1.58623059132168E-10,-23.8005466461182,61.2423858642578,0.00166973110754,-0.596735239028931,0,0
295,5.982413839316,0,0,9.82258796691895,1.52672555486788E-07,-1.72733606973452E-07,2.12976858371405E-11,-23.8005466461182,61.2423858642578,0.001670989906415,-0.596735239028931,0,0
296,5.99241383909248,0,0,9.79741287231445,1.49673624605384E-07,-1.76494282300155E-07,6.87680728334028E-12,-23.8005466461182,61.2423858642578,0.001670989906415,-0.596735239028931,0,0
297,6.00241383886896,0,0,9.8210620880127,-7.42189229185897E-07,1.75470304952796E-07,9.97567237148722E-11,-23.8005466461182,61.2423858642578,0.001672096201219,-0.596735239028931,0,0
298,6.01241383864544,0,0,9.7989387512207,-7.63031493988819E-07,1.7930702256308E-07,-3.89310250703545E-11,-23.8005466461182,61.2423858642578,0.001672096201219,-0.596735239028931,0,0
299,6.02241383842193,0,0,9.8100004196167,1.28436369095652E-07,-1.68418821999694E-07,-1.09976458495531E-10,-23.8005466461182,61.2423858642578,0.001672096201219,-0.596735239028931,0,0
300,6.03241383819841,0,0,9.82449722290039,1.37868767069449E-07,-1.62810124493262E-07,3.86034537669389E-11,-23.8005466461182,61.2423858642578,0.001673545804806,-0.596735239028931,0,0
301,6.04241383797489,0,0,9.79550361633301,1.17265699373093E-07,-1.58052074539228E-07,1.29936339465786E-11,-23.8005466461182,61.2423858642578,0.001673545804806,-0.596735239028931,0,0
302,6.05241383775137,0,0,9.8100004196167,-7.90520687132812E-07,1.97717284322607E-07,1.01174714439711E-10,-23.8005466461182,61.2423858642578,0.001673545804806,-0.596735239028931,0,0
303,6.06241383752786,0,0,9.82182502746582,7.68322308886127E-07,2.05940935416038E-07,-1.46214401697264E-10,-23.8005466461182,61.2423858642578,0.001674728351645,-0.596735239028931,0,0
304,6.07241383730434,0,0,9.79817581176758,1.03340859425316E-07,-1.38674920435733E-07,7.03871128049371E-11,-23.8005466461182,61.2423858642578,0.001674728351645,-0.596735239028931,0,0
305,6.08241383708082,0,0,9.8100004196167,-8.07494643595419E-07,2.18010569597027E-07,8.47419912020087E-11,-23.8005466461182,61.2423858642578,0.001674728351645,-0.596735239028931,0,0
306,6.0924138368573,0,0,9.8100004196167,7.14268992396683E-07,2.17840451455231E-07,-1.49895290624258E-10,-23.8005466461182,61.2423858642578,0.001674728351645,-0.596735239028931,0,0
307,6.10241383663379,0,0,9.8100004196167,0,0,0,-23.8005466461182,61.2423858642578,0.001674728351645,-0.596735239028931,0,0
308,6.11241383641027,0,0,9.82029914855957,6.99989843866433E-09,-1.03771000681263E-08,-1.59845997115687E-12,-23.8005466461182,61.2423858642578,0.001675758277997,-0.596735239028931,0,0
309,6.12241383618675,0,0,9.79970169067383,-1.55202684037903E-09,-1.08292592670978E-08,8.22774899426892E-13,-23.8005466461182,61.2423858642578,0.001675758277997,-0.596735239028931,0,0
310,6.13241383596323,0,0,9.8100004196167,5.5484647987214E-09,-1.83809731879592E-08,-1.62108889679991E-12,-23.8005466461182,61.2423858642578,0.001675758277997,-0.596735239028931,0,0
311,6.14241383573972,0,0,9.8100004196167,8.86689406343066E-07,-3.72205590792873E-07,-9.7768279583299E-11,-23.8005466461182,61.2423858642578,0.001675758277997,-0.596735239028931,0,0
312,6.1524138355162,0,0,9.8100004196167,1.10647393469776E-08,-2.92477668750735E-08,1.36952588158934E-10,-23.8005466461182,61.2423858642578,0.001675758277997,-0.596735239028931,0,0
313,6.16241383529268,0,0,9.8100004196167,-8.85248368831526E-07,3.21806680858572E-07,6.93796756157106E-11,-23.8005466461182,61.2423858642578,0.001675758277997,-0.596735239028931,0,0
314,6.17241383506916,0,0,9.8100004196167,-6.49129550112093E-09,-3.43460868634793E-08,-1.48015960599324E-10,-23.8005466461182,61.2423858642578,0.001675758277997,-0.596735239028931,0,0
315,6.18241383484565,0,0,9.8100004196167,-8.9632004574014E-07,3.15707467279935E-07,1.25730009736813E-10,-23.8005466461182,61.2423858642578,0.001675758277997,-0.596735239028931,0,0
316,6.19241383462213,0,0,9.8100004196167,-1.87611863822212E-08,-4.04415025911931E-08,-1.30383953633739E-10,-23.8005466461182,61.2423858642578,0.001675758277997,-0.596735239028931,0,0
317,6.20241383439861,0,0,9.8203010559082,8.87115447767428E-07,-3.94344567666849E-07,-6.87328180482005E-11,-23.8005466461182,61.2423858642578,0.001676788320765,-0.596735239028931,0,0
318,6.2124138341751,0,0,9.7996997833252,2.31003713935252E-08,-4.43481980028082E-08,1.47075310263922E-10,-23.8005466461182,61.2423858642578,0.001676788320765,-0.596735239028931,0,0
319,6.22241383395158,0,0,9.8100004196167,2.00709067144089E-08,-4.14931982106737E-08,-2.62091737202041E-11,-23.8005466461182,61.2423858642578,0.001676788320765,-0.596735239028931,0,0
320,6.23241383372806,0,0,9.8100004196167,1.41757370286655E-08,-4.3363758805981E-08,-8.20596542105978E-12,-23.8005466461182,61.2423858642578,0.001676788320765,-0.596735239028931,0,0
321,6.24241383350454,0,0,9.8100004196167,-8.69079315179988E-07,3.1234858965945E-07,9.64007068615658E-11,-23.8005466461182,61.2423858642578,0.001676788320765,-0.596735239028931,0,0
322,6.25241383328103,0,0,9.8100004196167,8.08778111149877E-09,-4.28575894773076E-08,-1.38757560996794E-10,-23.8005466461182,61.2423858642578,0.001676788320765,-0.596735239028931,0,0
323,6.26241383305751,0,0,9.8100004196167,1.57478586970683E-06,-4.50568755638869E-08,-7.69811298040324E-11,-23.8005466461182,61.2423858642578,0.001676788320765,-0.596735239028931,0,0
324,6.27241383283399,0,0,9.8100004196167,-8.3376141901681E-07,3.05688018897854E-07,2.84055057253596E-10,-23.8005466461182,61.2423858642578,0.001676788320765,-0.596735239028931,0,0
325,6.28241383261047,0,0,9.8100004196167,-8.50818310027535E-07,3.04795435113192E-07,-9.06616726137344E-11,-23.8005466461182,61.2423858642578,0.001676788320765,-0.596735239028931,0,0
326,6.29241383238696,0,0,9.82068157196045,9.1528727352852E-07,-4.04277443522005E-07,-2.23112778252599E-10,-23.8005466461182,61.2423858642578,0.001677856431343,-0.596735239028931,0,0
327,6.30241383216344,0,0,9.79931926727295,4.44299210755617E-08,-6.08817529723638E-08,1.72063266412614E-10,-23.8005466461182,61.2423858642578,0.001677856431343,-0.596735239028931,0,0
328,6.31241383193992,0,0,9.8100004196167,4.76674024696422E-08,-6.98152220479642E-08,-2.0252841070878E-11,-23.8005466461182,61.2423858642578,0.001677856431343,-0.596735239028931,0,0
329,6.3224138317164,0,0,9.8100004196167,4.39740510671527E-08,-7.2162585240676E-08,-6.66930920212305E-12,-23.8005466461182,61.2423858642578,0.001677856431343,-0.596735239028931,0,0
330,6.33241383149289,0,0,9.8100004196167,-8.36651395275112E-07,2.70827854365052E-07,9.52701806333778E-11,-23.8005466461182,61.2423858642578,0.001677856431343,-0.596735239028931,0,0
331,6.34241383126937,0,0,9.8100004196167,1.57441445480799E-06,-7.70619337231437E-08,-2.4162064016231E-10,-23.8005466461182,61.2423858642578,0.001677856431343,-0.596735239028931,0,0
332,6.35241383104585,0,0,9.8100004196167,-8.19934371065756E-07,2.67976531631575E-07,3.01537322888734E-10,-23.8005466461182,61.2423858642578,0.001677856431343,-0.596735239028931,0,0
333,6.36241383082233,0,0,9.8100004196167,9.21553009902709E-07,-4.37258904639748E-07,-2.786889885531E-10,-23.8005466461182,61.2423858642578,0.001677856431343,-0.596735239028931,0,0
334,6.37241383059882,0,0,9.8100004196167,-8.22282459012058E-07,2.53346570389112E-07,2.48395970459114E-10,-23.8005466461182,61.2423858642578,0.001677856431343,-0.596735239028931,0,0
335,6.3824138303753,0,0,9.8100004196167,9.23836239508091E-07,-4.48570233402279E-07,-2.57530136105188E-10,-23.8005466461182,61.2423858642578,0.001677856431343,-0.596735239028931,0,0
336,6.39241383015178,0,0,9.8100004196167,-8.23932282401074E-07,2.4204626924984E-07,2.55025917050844E-10,-23.8005466461182,61.2423858642578,0.001677856431343,-0.596735239028931,0,0
337,6.40241382992826,0,0,9.8100004196167,3.77814295404733E-08,-1.0839370645499E-07,-1.58521584747717E-10,-23.8005466461182,61.2423858642578,0.001677856431343,-0.596735239028931,0,0
338,6.41241382970475,0,0,9.8100004196167,3.29914513486074E-08,-1.11231031496573E-07,2.1448065545826E-11,-23.8005466461182,61.2423858642578,0.001677856431343,-0.596735239028931,0,0
339,6.42241382948123,0,0,9.8100004196167,-8.49285754611628E-07,2.32705573921521E-07,1.03912628501845E-10,-23.8005466461182,61.2423858642578,0.001677856431343,-0.596735239028931,0,0
340,6.43241382925771,0,0,9.8100004196167,9.96052129664804E-09,-1.18221748834912E-07,-1.35367411724374E-10,-23.8005466461182,61.2423858642578,0.001677856431343,-0.596735239028931,0,0
341,6.44241382903419,0,0,9.8203010559082,1.55079726482654E-06,-1.22716372175091E-07,-7.60199611593571E-11,-23.8005466461182,61.2423858642578,0.001678886357695,-0.596735239028931,0,0
342,6.45241382881068,0,0,9.7996997833252,2.52926195543068E-08,-1.27684160133867E-07,1.84335630093457E-10,-23.8005466461182,61.2423858642578,0.001678886357695,-0.596735239028931,0,0
343,6.46241382858716,0,0,9.8100004196167,-8.59933550145797E-07,2.13892874967314E-07,4.53941884082099E-11,-23.8005466461182,61.2423858642578,0.001678886357695,-0.596735239028931,0,0
344,6.47241382836364,0,0,9.8100004196167,3.9153902342548E-09,-1.34692783149148E-07,-1.52017454180253E-10,-23.8005466461182,61.2423858642578,0.001678886357695,-0.596735239028931,0,0
345,6.48241382814013,0,0,9.8100004196167,6.43407190636935E-07,2.18921400119143E-07,2.08447842320325E-11,-23.8005466461182,61.2423858642578,0.001678886357695,-0.596735239028931,0,0
346,6.49241382791661,0,0,9.8100004196167,-1.21220971038838E-08,-1.332297188128E-07,4.59578070044486E-11,-23.8005466461182,61.2423858642578,0.001678886357695,-0.596735239028931,0,0
347,6.50241382769309,0,0,9.8100004196167,-8.93981166427693E-07,2.10672553180302E-07,7.41597686038098E-11,-23.8005466461182,61.2423858642578,0.001678886357695,-0.596735239028931,0,0
348,6.51241382746957,0,0,9.8100004196167,-3.28945120031676E-08,-1.38377018288338E-07,-1.43071748892609E-10,-23.8005466461182,61.2423858642578,0.001678886357695,-0.596735239028931,0,0
349,6.52241382724606,0,0,9.8100004196167,0,0,0,-23.8005466461182,61.2423858642578,0.001678886357695,-0.596735239028931,0,0
350,6.53241382702254,0,0,9.8100004196167,2.25139507037397E-09,2.34961561318414E-09,1.02268698067357E-13,-23.8005466461182,61.2423858642578,0.001678886357695,-0.596735239028931,0,0
351,6.54241382679902,0,0,9.8100004196167,4.51262405221087E-09,4.69941774383642E-09,2.17145772933927E-13,-23.8005466461182,61.2423858642578,0.001678886357695,-0.596735239028931,0,0
352,6.5524138265755,0,0,9.8100004196167,6.77531586390501E-09,7.04921365723976E-09,2.45878567072672E-13,-23.8005466461182,61.2423858642578,0.001678886357695,-0.596735239028931,0,0
353,6.56241382635199,0,0,9.8100004196167,9.03815600139524E-09,9.39901756424888E-09,2.5129776189646E-13,-23.8005466461182,61.2423858642578,0.001678886357695,-0.596735239028931,0,0
354,6.57241382612847,0,0,9.8100004196167,1.13010472091446E-08,1.17488188067227E-08,2.52200793885923E-13,-23.8005466461182,61.2423858642578,0.001678886357695,-0.596735239028931,0,0
355,6.58241382590495,0,0,9.8100004196167,1.35639135478982E-08,1.4098620937375E-08,2.52313496701753E-13,-23.8005466461182,61.2423858642578,0.001678886357695,-0.596735239028931,0,0
356,6.59241382568143,0,0,9.8100004196167,1.58267763339381E-08,1.64484230680273E-08,2.5233390680765E-13,-23.8005466461182,61.2423858642578,0.001678886357695,-0.596735239028931,0,0
357,6.60241382545792,0,0,9.8100004196167,-6.20323248767818E-07,-3.32956915372051E-07,5.33726405085866E-12,-23.8005466461182,61.2423858642578,0.001678886357695,-0.596735239028931,0,0
358,6.6124138252344,0,0,9.8100004196167,5.48540270983722E-08,1.77371735077259E-08,-3.9117653560794E-11,-23.8005466461182,61.2423858642578,0.001678886357695,-0.596735239028931,0,0
359,6.62241382501088,0,0,9.8100004196167,8.53747579299125E-08,2.0526520927433E-08,2.36029980282826E-11,-23.8005466461182,61.2423858642578,0.001678886357695,-0.596735239028931,0,0
360,6.63241382478736,0,0,9.8100004196167,1.13822281377907E-07,2.32893562213121E-08,6.79644361623044E-12,-23.8005466461182,61.2423858642578,0.001678886357695,-0.596735239028931,0,0
361,6.64241382456385,0,0,9.8100004196167,1.29397577097734E-07,3.17316164455406E-08,2.929421028669E-12,-23.8005466461182,61.2423858642578,0.001678886357695,-0.596735239028931,0,0
362,6.65241382434033,0,0,9.8100004196167,1.4487464738977E-07,4.01743207589789E-08,1.28424864059146E-12,-23.8005466461182,61.2423858642578,0.001678886357695,-0.596735239028931,0,0
363,6.66241382411681,0,0,9.8100004196167,-1.37666756927501E-06,4.31905462505711E-08,1.0438413328151E-10,-23.8005466461182,61.2423858642578,0.001678886357695,-0.596735239028931,0,0
364,6.67241382389329,0,0,9.8100004196167,-1.35759239583422E-06,4.40752181418702E-08,-7.30647209401525E-11,-23.8005466461182,61.2423858642578,0.001678886357695,-0.596735239028931,0,0
365,6.68241382366978,0,0,9.8100004196167,-4.44891242068479E-07,3.98025264303214E-07,-4.1345850354535E-11,-23.8005466461182,61.2423858642578,0.001678886357695,-0.596735239028931,0,0
366,6.69241382344626,0,0,9.8100004196167,-4.15398091035968E-07,-3.04202075085413E-07,-3.680591248445E-11,-23.8005466461182,61.2423858642578,0.001678886357695,-0.596735239028931,0,0
367,6.70241382322274,0,0,9.8100004196167,-3.62225534900062E-07,-3.02967094967244E-07,6.16193207569893E-12,-23.8005466461182,61.2423858642578,0.001678886357695,-0.596735239028931,0,0
368,6.71241382299922,0,0,9.8100004196167,1.20373010759067E-06,-3.03259099609932E-07,-1.0120915910905E-10,-23.8005466461182,61.2423858642578,0.001678886357695,-0.596735239028931,0,0
369,6.72241382277571,0,0,9.8100004196167,1.2417078778526E-06,-3.02389906892131E-07,7.28152121931558E-11,-23.8005466461182,61.2423858642578,0.001678886357695,-0.596735239028931,0,0
370,6.73241382255219,0,0,9.8100004196167,3.86314070510707E-07,5.09073281307337E-08,1.17619608497321E-10,-23.8005466461182,61.2423858642578,0.001678886357695,-0.596735239028931,0,0
371,6.74241382232867,0,0,9.8100004196167,3.98086143604814E-07,5.89088209324018E-08,-3.50162537854359E-11,-23.8005466461182,61.2423858642578,0.001678886357695,-0.596735239028931,0,0
372,6.75241382210515,0,0,9.8100004196167,4.14065397080776E-07,6.6878634186196E-08,-9.49630131474866E-12,-23.8005466461182,61.2423858642578,0.001678886357695,-0.596735239028931,0,0
373,6.76241382188164,0,0,9.8100004196167,4.30502069548311E-07,7.484789676937E-08,-1.19751084048936E-12,-23.8005466461182,61.2423858642578,0.001678886357695,-0.596735239028931,0,0
374,6.77241382165812,0,0,9.8100004196167,4.47004680381724E-07,8.28171948796808E-08,4.63173770171021E-13,-23.8005466461182,61.2423858642578,0.001678886357695,-0.596735239028931,0,0
375,6.7824138214346,0,0,9.8100004196167,4.63516727222668E-07,9.07864929899915E-08,7.51563308115655E-13,-23.8005466461182,61.2423858642578,0.001678886357695,-0.596735239028931,0,0
376,6.79241382121109,0,0,9.8100004196167,-1.81990813530319E-07,-2.54358155871159E-07,7.33784647627411E-12,-23.8005466461182,61.2423858642578,0.001678886357695,-0.596735239028931,0,0
377,6.80241382098757,0,0,9.8100004196167,4.80471214814315E-07,9.96620670434822E-08,-3.81163399454376E-11,-23.8005466461182,61.2423858642578,0.001678886357695,-0.596735239028931,0,0
378,6.81241382076405,0,0,9.8100004196167,-1.70929439491374E-07,-2.40255701555725E-07,3.1944783623894E-11,-23.8005466461182,61.2423858642578,0.001678886357695,-0.596735239028931,0,0
379,6.82241382054053,0,0,9.8100004196167,4.83530584460823E-07,1.18965459705578E-07,-3.07304771907102E-11,-23.8005466461182,61.2423858642578,0.001678886357695,-0.596735239028931,0,0
380,6.83241382031702,0,0,9.8100004196167,-1.67861273325798E-07,-2.20951832829996E-07,3.27691693224885E-11,-23.8005466461182,61.2423858642578,0.001678886357695,-0.596735239028931,0,0
381,6.8424138200935,0,0,9.8100004196167,-1.05544324924267E-06,1.39447863034547E-07,7.38812205858253E-11,-23.8005466461182,61.2423858642578,0.001678886357695,-0.596735239028931,0,0
382,6.85241381986998,0,0,9.8100004196167,-1.05268009065185E-06,1.51706757378633E-07,-4.6416967491858E-11,-23.8005466461182,61.2423858642578,0.001678886357695,-0.596735239028931,0,0
383,6.86241381964646,0,0,9.8100004196167,-1.03475804280606E-06,1.58259240379266E-07,-1.25719573640382E-11,-23.8005466461182,61.2423858642578,0.001678886357695,-0.596735239028931,0,0
384,6.87241381942295,0,0,9.8100004196167,-1.00582485629275E-06,1.59135367994168E-07,-3.21993993968039E-12,-23.8005466461182,61.2423858642578,0.001678886357695,-0.596735239028931,0,0
385,6.88241381919943,0,0,9.8100004196167,-8.89849616214633E-08,5.1213675078543E-07,-2.25586667401689E-11,-23.8005466461182,61.2423858642578,0.001678886357695,-0.596735239028931,0,0
386,6.89241381897591,0,0,9.8100004196167,-9.28547763123788E-07,1.66531819445481E-07,6.44968453644701E-11,-23.8005466461182,61.2423858642578,0.001678886357695,-0.596735239028931,0,0
387,6.90241381875239,0,0,9.8100004196167,-2.3262977322247E-07,-1.90669581456859E-07,-1.15396900368658E-10,-23.8005466461182,61.2423858642578,0.001678886357695,-0.596735239028931,0,0
388,6.91241381852888,0,0,9.8100004196167,4.17958219145476E-08,-1.90852873060976E-07,4.72085565084157E-12,-23.8005466461182,61.2423858642578,0.001678886357695,-0.596735239028931,0,0
389,6.92241381830536,0,0,9.8100004196167,9.26518737287552E-08,-1.89553887253169E-07,1.66821695346542E-11,-23.8005466461182,61.2423858642578,0.001678886357695,-0.596735239028931,0,0
390,6.93241381808184,0,0,9.8100004196167,1.30879797666239E-07,-1.82575931262363E-07,5.33977896621796E-12,-23.8005466461182,61.2423858642578,0.001678886357695,-0.596735239028931,0,0
391,6.94241381785832,0,0,9.8100004196167,0,0,0,-23.8005466461182,61.2423858642578,0.001678886357695,-0.596735239028931,0,0
392,6.95241381763481,0,0,9.8100004196167,3.77860409628283E-08,6.97778901326274E-09,-1.80129609145263E-12,-23.8005466461182,61.2423858642578,0.001678886357695,-0.596735239028931,0,0
393,6.96241381741129,0,0,9.8100004196167,7.57374749582596E-08,1.39561242562536E-08,4.7159541896602E-15,-23.8005466461182,61.2423858642578,0.001678886357695,-0.596735239028931,0,0
394,6.97241381718777,0,0,9.8100004196167,1.13712786742326E-07,2.09344914736675E-08,4.81089126869172E-13,-23.8005466461182,61.2423858642578,0.001678886357695,-0.596735239028931,0,0
395,6.98241381696425,0,0,9.8100004196167,1.40188546993159E-07,3.3590694670238E-08,1.96591636199284E-12,-23.8005466461182,61.2423858642578,0.001678886357695,-0.596735239028931,0,0
396,6.99241381674074,0,0,9.8100004196167,1.66614412933086E-07,4.62473792595119E-08,1.46063760045334E-12,-23.8005466461182,61.2423858642578,0.001678886357695,-0.596735239028931,0,0
397,7.00241381651722,0,0,9.8100004196167,1.93033159234801E-07,5.89040460852175E-08,1.31903667675848E-12,-23.8005466461182,61.2423858642578,0.001678886357695,-0.596735239028931,0,0
398,7.0124138162937,0,0,9.8100004196167,2.05272556286218E-07,6.59417409565322E-08,1.64190633745315E-12,-23.8005466461182,61.2423858642578,0.001678886357695,-0.596735239028931,0,0
399,7.02241381607018,0,0,9.8100004196167,2.05411666343025E-07,6.73550601959505E-08,1.15395366873106E-12,-23.8005466461182,61.2423858642578,0.001678886357695,-0.596735239028931,0,0
400,7.03241381584667,0,0,9.8100004196167,2.05489101290368E-07,6.87678749500265E-08,3.85417446655684E-13,-23.8005466461182,61.2423858642578,0.001678886357695,-0.596735239028931,0,0
401,7.04241381562315,0.239971294999123,0.002501909155399,9.82068157196045,1.07869191197096E-05,-0.000148072242155,0.0003997705644,-23.8005218505859,61.2423858642578,0.001679954468273,-0.596509337425232,9.56226431299001E-05,1.92617098946357E-05
402,7.05241381539963,27.2229328155518,-0.076641470193863,9.56054401397705,-2.38762186199892E-06,0.00705583859235,0.000175104665686,-23.7977752685547,61.2423515319824,0.001656265230849,-0.59640896320343,-0.003961509559304,1.78902846528217E-05
403,7.06241381517611,26.0020294189453,0.110625401139259,9.65798377990723,-2.89817876364395E-06,0.011426971293986,8.83024331415072E-05,-23.7924289703369,61.2422981262207,0.001617851201445,-0.596358478069305,-0.010511660948396,1.62233136506984E-05
404,7.0724138149526,24.4047584533691,-0.026034461334348,9.70552539825439,-2.21047093873494E-06,0.014300382696092,5.33351230842527E-05,-23.7846431732178,61.2422218322754,0.001569785992615,-0.596327900886535,-0.018694227561355,1.49489860632457E-05
405,7.08241381472908,21.3456382751465,0.022106662392616,9.75697422027588,-2.00644285541784E-06,0.015620026737452,3.1308074539993E-05,-23.7747230529785,61.2421188354492,0.001517448341474,-0.596309661865234,-0.027655433863402,1.37920878842124E-05
406,7.09241381450556,19.6277332305908,-0.035795748233795,9.77829074859619,-1.44596060636104E-06,0.016126461327076,1.90860864677234E-05,-23.7628421783447,61.2419967651367,0.0014632033417,-0.596298694610596,-0.036889851093292,1.29574391394272E-05
407,7.10241381428205,11.6283798217773,0.00093853357248,9.86456775665283,-6.01857266246952E-07,0.014245141297579,1.43623938129167E-05,-23.7497959136963,61.2418594360352,0.001415328937583,-0.596290469169617,-0.045051924884319,1.26067134260666E-05
408,7.11241381405853,19.4101810455322,0.001909106387757,9.76780509948731,-1.00255715551612E-06,0.014964805915952,2.76010405286797E-06,-23.7348136901855,61.2417030334473,0.001365051255561,-0.596289098262787,-0.0536238104105,1.20309487101622E-05
409,7.12241381383501,15.3518390655518,-0.04034361615777,9.82322597503662,1.36476921852591E-06,0.014105699025095,2.0404954739206E-06,-23.7182960510254,61.241527557373,0.001317749032751,-0.596287727355957,-0.061710756272078,1.28116917039733E-05
410,7.13241381361149,12.851996421814,0.053631998598576,9.84030628204346,2.76081635774972E-07,0.012724026106298,3.34695459969225E-06,-23.7004928588867,61.241340637207,0.00127502437681,-0.596285879611969,-0.068998567759991,1.29676336655393E-05
411,7.14241381338798,12.7739610671997,-0.027196520939469,9.8332052230835,-3.6728883401338E-07,0.011541642248631,1.83790518804017E-06,-23.6814155578613,61.2411422729492,0.001236305222847,-0.596284747123718,-0.075610190629959,1.27559642351116E-05
412,7.15241381316446,7.01439476013184,-0.007144802715629,9.88099002838135,1.8311633311896E-06,0.009054910391569,2.40997792388953E-06,-23.6616382598877,61.2409362792969,0.00120567320846,-0.596283614635468,-0.080801136791706,1.38031482492806E-05
413,7.16241381294094,11.8752851486206,0.003435770981014,9.81935787200928,-7.16885722340521E-07,0.008337524719536,-7.605413429701E-06,-23.6406726837158,61.2407150268555,0.001177749596536,-0.596287667751312,-0.085575439035893,1.33986959554022E-05
414,7.17241381271742,6.65542888641357,0.029110120609403,9.86334896087647,1.15794296107197E-06,0.006407131440938,-4.58295035059564E-05,-23.6190452575684,61.2404899597168,0.001156196580268,-0.596314132213593,-0.089250080287457,1.41023401738494E-05
415,7.18241381249391,9.6961669921875,0.020748948678374,9.82374668121338,1.13229600628983E-06,0.005531754344702,2.16898934013443E-05,-23.5964488983154,61.2402572631836,0.001137580838986,-0.59630161523819,-0.092419281601906,1.47313139677863E-05
416,7.19241381227039,6.17679452896118,-0.015889994800091,9.84900951385498,-4.22207875772074E-07,0.004064123611897,8.81535233929753E-05,-23.5732364654541,61.2400169372559,0.001123886089772,-0.596251428127289,-0.094748377799988,1.44069799716817E-05
417,7.20241381204687,7.91697692871094,0.002221592934802,9.82642459869385,-1.34811364205234E-06,0.003171852556989,-5.92315263929777E-05,-23.5492343902588,61.2397689819336,0.001113166799769,-0.596285104751587,-0.096565209329128,1.36910375658772E-05
418,7.21241381182335,5.99730157852173,-0.017750851809979,9.83411312103272,-1.58146463036246E-07,0.00214689434506,-0.000148378006998,-23.5246353149414,61.2395133972168,0.001105880714022,-0.596370279788971,-0.097787812352181,1.37447113957023E-05
419,7.22241381159984,6.71738338470459,-0.010259254835546,9.82477760314941,1.58604416355956E-06,0.001374483457766,3.93154623452574E-05,-23.4993648529053,61.2392501831055,0.001101226778701,-0.596347868442535,-0.098580114543438,1.46146412589587E-05
420,7.23241381137632,5.35710000991821,0.015578675083816,9.82899761199951,1.30031378375861E-06,0.000546397292055,9.48510933085345E-05,-23.4735622406006,61.2389831542969,0.001099395682104,-0.596293389797211,-0.09889430552721,1.52661250467645E-05
421,7.2424138111528,6.15703821182251,0.023904351517558,9.81769847869873,-1.09468965092674E-06,8.77555805800512E-08,-2.85317055386258E-05,-23.4471435546875,61.2387084960938,0.001099395682104,-0.596293389797211,-0.09889430552721,1.52661250467645E-05
422,7.25241381092928,4.71747493743897,-0.031075816601515,9.82364654541016,-1.68311805737176E-06,-0.000676318712067,-5.96201170992572E-05,-23.4202556610107,61.2384300231934,0.001101570087485,-0.596343874931335,-0.098511815071106,1.37617007567314E-05
423,7.26241381070577,5.6773042678833,-0.021083742380142,9.81404685974121,-1.21498021599109E-06,-0.001054684980772,-9.22982781048631E-06,-23.39280128479,61.2381439208984,0.001105117728002,-0.59634929895401,-0.097903929650784,1.30745211208705E-05
424,7.27241381048225,4.23640203475952,0.043924264609814,9.82038879394531,6.60007970054721E-07,-0.001578248222359,2.18533341467264E-06,-23.3649253845215,61.2378540039063,0.001110420213081,-0.59634792804718,-0.096995510160923,1.34504971356364E-05
425,7.28241381025873,5.21698570251465,-0.025870880112052,9.80967044830322,4.82088921671675E-07,-0.001825264072977,-1.12719053504406E-05,-23.3365306854248,61.2375564575195,0.001116561819799,-0.596354365348816,-0.095950491726399,1.37376764541841E-05
426,7.29241381003521,3.89643359184265,0.000388781772926,9.81692600250244,4.82463690332224E-07,-0.00222316221334,-1.42612461786484E-05,-23.307746887207,61.2372589111328,0.001124038710259,-0.596362590789795,-0.094680078327656,1.40277743412298E-05
427,7.3024138098117,4.87571525573731,0.050587322562933,9.80665016174316,-5.68725738503417E-07,-0.002363116247579,-1.29833751998376E-05,-23.2784767150879,61.2369575500488,0.001131973229349,-0.596369862556458,-0.093320868909359,1.37142251332989E-05
428,7.31241380958818,3.59636664390564,-0.042730521410704,9.81455039978027,1.00572640349128E-06,-0.002662616316229,-1.41015925692045E-05,-23.2488479614258,61.2366485595703,0.001140937791206,-0.596378028392792,-0.091790907084942,1.43035931614577E-05
429,7.32241380936466,4.53603649139404,-0.032945867627859,9.80439472198486,-5.27654265169986E-07,-0.002716666786,-1.41697119033779E-05,-23.2187671661377,61.2363357543945,0.001150054857135,-0.596386194229126,-0.09024728089571,1.40141191877774E-05
430,7.33241380914114,3.3949875831604,0.035184293985367,9.81239414215088,-4.80905271160736E-07,-0.002937975339592,-1.42032095027389E-05,-23.1883487701416,61.2360191345215,0.001159935025498,-0.59639436006546,-0.088560231029987,1.37513261506683E-05
431,7.34241380891763,4.31505298614502,0.004763225093484,9.80308532714844,1.51890731103777E-07,-0.002924707951024,-1.4133514923742E-05,-23.1575012207031,61.2356986999512,0.001169776893221,-0.59640234708786,-0.086879998445511,1.38506484290701E-05
432,7.35241380869411,3.15524125099182,-0.047308705747128,9.81028461456299,-1.3985904843139E-06,-0.003085889853537,-1.48251156133483E-05,-23.1263389587402,61.2353706359863,0.001180114690214,-0.596410870552063,-0.085124641656876,1.30619846459012E-05
433,7.36241380847059,4.09404563903809,0.042472220957279,9.80100154876709,1.33042487959756E-06,-0.00302061624825,-1.29991040012101E-05,-23.0947704315186,61.2350425720215,0.001190147362649,-0.596418499946594,-0.083376117050648,1.3835196114087E-05
434,7.37241380824707,3.03422737121582,-0.008558990433812,9.81102848052979,9.42976896567416E-07,-0.003135674167424,-1.18256593850674E-05,-23.0628967285156,61.2347106933594,0.001200714032166,-0.596425235271454,-0.081593438982964,1.43852194014471E-05
435,7.38241380802356,3.89386773109436,0.000393627036829,9.8007698059082,6.20121625161119E-07,-0.003032483160496,-1.22770634334302E-05,-23.0306358337402,61.234375,0.001210899325088,-0.596432268619537,-0.079844906926155,1.47505634231493E-05
436,7.39241380780004,2.91321039199829,0.030190493911505,9.80870914459229,-4.78994941488509E-08,-0.003112623235211,-1.28042938740691E-05,-22.9980869293213,61.2340354919434,0.001221351558343,-0.5964395403862,-0.078069061040878,1.47331847983878E-05
437,7.40241380757652,3.75369572639465,-0.041060689836741,9.80081176757813,-9.35650746214378E-07,-0.002980417106301,-1.25420119729824E-05,-22.9651622772217,61.2336959838867,0.001231384230778,-0.596446692943573,-0.076361507177353,1.42067920023692E-05
438,7.41241380735301,2.81304049491882,-0.010847605764866,9.80787086486816,3.43166789207316E-07,-0.003035209141672,-1.4454950360232E-05,-22.9319591522217,61.2333488464356,0.0012415695237,-0.596454799175262,-0.074619814753532,1.4414371435123E-05
439,7.42241380712949,3.63228631019592,0.037686750292778,9.80042266845703,-1.1316620884827E-06,-0.002883913461119,-1.3578517609858E-05,-22.8983936309814,61.2329978942871,0.001251258770935,-0.596462965011597,-0.072960078716278,1.37759952849592E-05
440,7.43241380690597,2.712477684021,-0.011888002976775,9.80816173553467,-2.98030954581918E-07,-0.002920881845057,-1.30519656522665E-05,-22.8645572662354,61.2326469421387,0.001261100755073,-0.596470296382904,-0.071300342679024,1.36146090881084E-05
441,7.44241380668245,3.55173516273499,0.036854971200228,9.79996299743652,1.08633992113028E-06,-0.002756017027423,-1.35291038532159E-05,-22.8303680419922,61.232292175293,0.001270370441489,-0.596478164196014,-0.069715738296509,1.42466269608121E-05
442,7.45241380645894,2.61277198791504,-0.092923812568188,9.80804634094238,3.83209084020564E-07,-0.002780668437481,-1.41963309943094E-05,-22.7959175109863,61.23193359375,0.001279754564166,-0.596486330032349,-0.068124301731587,1.44759642353165E-05
443,7.46241380623542,3.45079517364502,0.075812749564648,9.7995080947876,-3.35648536520239E-07,-0.002607976319268,-1.41516420626431E-05,-22.7611217498779,61.2315711975098,0.001288490253501,-0.596494436264038,-0.066628493368626,1.42932140079211E-05
444,7.4724138060119,2.61142516136169,-0.012927419506013,9.80780220031738,3.48943700601012E-07,-0.002624027198181,-1.40448391903192E-05,-22.7260684967041,61.2312049865723,0.001297302194871,-0.596502363681793,-0.065125852823258,1.45024105222547E-05
445,7.48241380578838,3.39155077934265,-0.044804450124502,9.80051136016846,-2.04889119004292E-07,-0.002446961356327,-1.30867674670299E-05,-22.6906776428223,61.2308349609375,0.001305541954935,-0.596509873867035,-0.06371883302927,1.4393420315173E-05
446,7.49241380556487,2.51053237915039,0.02602986805141,9.80765628814697,-9.15299040116224E-07,-0.002458459232003,-1.23274430734455E-05,-22.6550369262695,61.2304611206055,0.001313819899224,-0.596516907215118,-0.062311813235283,1.38767991302302E-05
447,7.50241380534135,3.31067299842834,-0.005638863425702,9.79885196685791,-8.47183628138737E-07,-0.002279934240505,-1.15949360406376E-05,-22.6190643310547,61.2300872802734,0.001321334857494,-0.596523642539978,-0.061007246375084,1.33984012791188E-05
448,7.51241380511783,2.51008796691895,0.02603037469089,9.811203956604,5.59099930796947E-08,-0.002289475174621,-1.1740916306735E-05,-22.5828418731689,61.2297096252441,0.001329231192358,-0.596530199050903,-0.059695851057768,1.34375613924931E-05
449,7.52241380489431,3.2702419757843,-0.006054414901882,9.79675006866455,1.9965573301306E-06,-0.002112279878929,-9.26057873584796E-06,-22.546293258667,61.2293281555176,0.001336135785095,-0.596535801887512,-0.05848690494895,1.45869835250778E-05
450,7.5324138046708,2.49050569534302,-0.054172709584236,9.81018447875977,1.50057826431294E-06,-0.00212003942579,-8.78775608725846E-06,-22.5094966888428,61.2289428710938,0.001343307434581,-0.596540868282318,-0.057271134108305,1.54518565977924E-05
451,7.54241380444728,3.22901725769043,0.073525533080101,9.80111885070801,8.057342029133E-07,-0.001945567317307,-7.57927227823529E-06,-22.4723796844482,61.2285575866699,0.00134990690276,-0.596544921398163,-0.056157812476158,1.59178252943093E-05
452,7.55241380422376,2.43012380599976,-0.054796949028969,9.8076696395874,-1.31919108525835E-07,-0.001953928498551,-8.17573709355202E-06,-22.4350185394287,61.2281684875488,0.001356506370939,-0.59654974937439,-0.055037662386894,1.58468519657617E-05
453,7.56241380400024,3.18865180015564,0.073109656572342,9.80089569091797,7.65019819937152E-07,-0.001783084007911,-7.819767233741E-06,-22.3973407745361,61.2277755737305,0.001362495357171,-0.596554219722748,-0.054013133049011,1.62893957167398E-05
454,7.57241380377673,2.46977019309998,-0.054380033165217,9.80810356140137,-7.5454479997461E-08,-0.001795831252821,-7.61669480198179E-06,-22.3594188690186,61.2273826599121,0.001368522644043,-0.596558749675751,-0.052981775254011,1.62503129104152E-05
455,7.58241380355321,3.10915493965149,-0.007718544453383,9.80221939086914,-9.04586045180622E-07,-0.001631587510929,-8.17433465272188E-06,-22.3211841583252,61.2269821166992,0.001374053885229,-0.596563220024109,-0.052052870392799,1.57363247126341E-05
456,7.59241380332969,2.44861650466919,0.02540766634047,9.80782032012939,-7.3340800099686E-08,-0.001651650876738,-7.23658331480692E-06,-22.2827053070068,61.2265815734863,0.00137958524283,-0.596567332744598,-0.051103472709656,1.5697996786912E-05
457,7.60241380310617,3.04926633834839,-0.048340577632189,9.80237197875977,8.03421130513016E-07,-0.001496837823652,-6.99294196238043E-06,-22.2439231872559,61.2261772155762,0.001384620671161,-0.596571385860443,-0.050249699503183,1.61619082064135E-05
458,7.61241380288266,2.42790699005127,0.065197676420212,9.80867481231689,-3.37198002853256E-08,-0.001520201214589,-6.87167130308808E-06,-22.2048988342285,61.2257690429688,0.001389732351527,-0.596575379371643,-0.049382265657187,1.61460156959947E-05
459,7.62241380265914,3.00898432731628,-0.048756584525108,9.80249118804932,9.8588600394578E-07,-0.001373326638713,-5.7389734138269E-06,-22.1655750274658,61.2253608703613,0.001394348102622,-0.596578598022461,-0.048589963465929,1.67136768141063E-05
460,7.63241380243562,2.38763666152954,0.064781583845615,9.80877685546875,-1.73564074223975E-09,-0.001398700056598,-6.50957463221857E-06,-22.126012802124,61.2249488830566,0.001399040222168,-0.596582353115082,-0.047790832817555,1.67158141266555E-05
461,7.6424138022121,3.00872325897217,-0.048756200820208,9.80295372009277,-3.37790275750649E-08,-0.001259139389731,-6.20089213043684E-06,-22.0861511230469,61.2245330810547,0.001403274480253,-0.596585929393768,-0.047060001641512,1.66994250321295E-05
462,7.65241380198859,2.38821983337402,-0.015213860198855,9.80921840667725,-6.67837980472541E-07,-0.001285340753384,-5.99961595071363E-06,-22.0460510253906,61.2241134643555,0.001407623291016,-0.596589267253876,-0.046329170465469,1.63195145432837E-05
463,7.66241380176507,2.927654504776,0.030406830832362,9.80271053314209,1.03769434645073E-06,-0.001152441254817,-4.71563362225425E-06,-22.0056591033936,61.2236938476562,0.001411476056091,-0.59659206867218,-0.045659810304642,1.69162540260004E-05
464,7.67241380154155,2.38799071311951,-0.015213573351503,9.8092737197876,-6.10339611739619E-07,-0.001178644248284,-5.39056100024027E-06,-21.9650287628174,61.2232704162598,0.001415443373844,-0.596595168113709,-0.044990453869104,1.65690180438105E-05
465,7.68241380131803,2.9274377822876,0.030407013371587,9.80392169952393,-6.05785260177072E-07,-0.001053739804775,-4.90509955852758E-06,-21.924108505249,61.2228469848633,0.001419029198587,-0.596597969532013,-0.044389396905899,1.62241267389618E-05
466,7.69241380109452,2.34820055961609,-0.055627778172493,9.80858898162842,-8.84125654465606E-07,-0.001079656998627,-6.44122610538034E-06,-21.8829517364502,61.2224159240723,0.001422653207555,-0.596601545810699,-0.043774679303169,1.57204412971623E-05
467,7.702413800871,2.8868236541748,0.069988593459129,9.80401134490967,-3.40014985056314E-08,-0.000963626487646,-4.85823466078728E-06,-21.8415088653564,61.2219848632813,0.001425895607099,-0.596604585647583,-0.043221436440945,1.57030899572419E-05
468,7.71241380064748,2.38800716400146,-0.055211048573256,9.80936908721924,1.00144674775038E-07,-0.000987352104858,-4.19887192038004E-06,-21.799825668335,61.221549987793,0.001429252559319,-0.596607029438019,-0.042654529213905,1.57622744154651E-05
469,7.72241380042397,2.80747747421265,-0.010839825496078,9.80374050140381,9.82954304618033E-08,-0.000881996995304,-3.88274975193781E-06,-21.7578639984131,61.2211112976074,0.001432189950719,-0.596609175205231,-0.042149096727371,1.58202201419044E-05
470,7.73241380020045,2.42699790000916,0.025201316922903,9.8093843460083,2.01649243081192E-07,-0.000899926177226,-3.35480331159488E-06,-21.7156581878662,61.2206726074219,0.001435241661966,-0.596611201763153,-0.04163683205843,1.59371666086372E-05
471,7.74241379997693,2.74731421470642,-0.011464424431324,9.80459594726563,-5.95591131968831E-07,-0.00080961670028,-3.8028474591556E-06,-21.6731815338135,61.2202262878418,0.001437950064428,-0.596613228321075,-0.041172377765179,1.55974739755038E-05
472,7.75241379975341,2.46683502197266,0.025618029758334,9.80863094329834,1.30010550947191E-06,-0.000817790103611,-1.7928324496097E-06,-21.6304588317871,61.219783782959,0.001440696651116,-0.596614241600037,-0.040701095014811,1.63431323016994E-05
473,7.7624137995299,2.68716502189636,-0.012088972143829,9.80582332611084,-5.10595043579087E-07,-0.000745069468394,-3.14391695610539E-06,-21.5874652862549,61.2193336486816,0.001443214365281,-0.596616208553314,-0.040277622640133,1.60518357006367E-05
474,7.77241379930638,2.46668839454651,0.025618074461818,9.8079080581665,-2.9479298291335E-07,-0.000743124051951,-1.79092069174658E-06,-21.5442276000977,61.2188835144043,0.001445693895221,-0.596617221832275,-0.039847321808338,1.58836501213955E-05
475,7.78241379908286,2.60744500160217,-0.052919715642929,9.80668163299561,3.4004600024673E-07,-0.000688742438797,-1.95602206076728E-06,-21.5007286071777,61.2184295654297,0.001448020921089,-0.596618354320526,-0.03945117071271,1.60792715178104E-05
476,7.79241379885934,2.52613401412964,0.066240906715393,9.80789852142334,1.31983938445046E-06,-0.00067779305391,-1.34331867229776E-06,-21.4569797515869,61.2179756164551,0.001450309762731,-0.596618831157684,-0.039061848074198,1.68360420502722E-05
477,7.80241379863583,2.58731770515442,-0.05312779545784,9.80672836303711,-4.01763287527501E-07,-0.000636239128653,-2.36040978052188E-06,-21.412971496582,61.2175178527832,0.001452445983887,-0.596620261669159,-0.038699850440025,1.66067566169659E-05
478,7.81241379841231,2.50642871856689,0.026034858077765,9.80756187438965,-4.81421352560574E-07,-0.000619732309133,-2.55034365181928E-06,-21.3687133789062,61.2170600891113,0.001454505836591,-0.596621692180633,-0.03834468126297,1.63318491104292E-05
479,7.82241379818879,2.54678583145142,-0.0135463681072,9.80755138397217,-1.8765818765587E-07,-0.00058808241738,-4.40057056039223E-06,-21.3242015838623,61.2165946960449,0.001456489553675,-0.596624135971069,-0.038010001182556,1.62260403158143E-05
480,7.83241379796527,2.50631523132324,0.026035023853183,9.80759239196777,-3.09102148321472E-08,-0.000568766437937,-3.21768311550841E-06,-21.2794399261475,61.2161331176758,0.001458396902308,-0.596625983715057,-0.03768215328455,1.62095348059665E-05
481,7.84241379774176,2.50667786598206,-0.013962736353278,9.80760383605957,6.6887018590478E-08,-0.000542238412891,-2.5342103526782E-06,-21.2344284057617,61.2156639099121,0.00146022788249,-0.596627414226532,-0.037367962300778,1.62487995112315E-05
482,7.85241379751824,2.50662899017334,-0.013962661847472,9.80761623382568,-1.09825109007033E-07,-0.000522272719536,-3.3041678761947E-06,-21.1891651153564,61.2151908874512,0.001461982727051,-0.59662938117981,-0.037081096321344,1.61871139425784E-05
483,7.86241379729472,2.54657769203186,-0.013546080328524,9.8076057434082,-1.10044503287554E-07,-0.000499380228575,-3.08912876789691E-06,-21.1436500549316,61.214714050293,0.001463661203161,-0.596631050109863,-0.036794226616621,1.61251937242923E-05
484,7.8724137970712,2.46611738204956,0.025618765503168,9.80766868591309,6.6800744491502E-08,-0.00047862745123,-1.84214081855316E-06,-21.0978870391846,61.2142372131348,0.00146526331082,-0.596632063388824,-0.036514189094305,1.6164132830454E-05
485,7.88241379684769,2.48648881912231,-0.014170818030834,9.80804538726807,-6.59641102629394E-07,-0.000458027614513,-2.01098146135337E-06,-21.0518760681152,61.2137565612793,0.001466827350669,-0.596633315086365,-0.036254640668631,1.57869599206606E-05
486,7.89241379662417,2.50644278526306,-0.013962500728667,9.80728435516357,-1.72745515669703E-07,-0.000439546594862,-2.79410096482025E-06,-21.0056171417236,61.2132759094238,0.001468276954256,-0.596634984016418,-0.035995095968247,1.56889527715975E-05
487,7.90241379640065,2.46598792076111,0.025618858635426,9.80808258056641,-3.07459714576908E-07,-0.000420818687417,-3.40294968736998E-06,-20.9591102600098,61.2127914428711,0.001469688373618,-0.596636891365051,-0.035756036639214,1.55140442075208E-05
488,7.91241379617713,2.5263614654541,-0.013754042796791,9.80805397033691,4.67999683451126E-07,-0.0004031007702,-3.80877850147954E-06,-20.912353515625,61.2123031616211,0.001471061725169,-0.596639096736908,-0.035523813217878,1.5783558410476E-05
489,7.92241379595362,2.44591164588928,0.02541078440845,9.80773067474365,-4.358202545518E-07,-0.000386004016036,-3.69685653822671E-06,-20.8653507232666,61.2118148803711,0.00147235870827,-0.596641182899475,-0.035305246710777,1.55351754074218E-05
490,7.9324137957301,2.50628852844238,-0.013962123543024,9.80770492553711,3.77173478227633E-07,-0.000368384266039,-3.93728532799287E-06,-20.8180999755859,61.2113227844238,0.001473579322919,-0.596643388271332,-0.035093508660793,1.57526828843402E-05
491,7.94241379550658,2.42584133148193,0.025202693417668,9.80814456939697,-5.08049481595663E-07,-0.000351750320988,-3.70488078260678E-06,-20.7706050872803,61.2108268737793,0.001474761986174,-0.596645653247833,-0.034888602793217,1.54627941810759E-05
492,7.95241379528306,2.48663878440857,-0.054168038070202,9.80811405181885,3.82195025849796E-07,-0.000336996919941,-3.55041015609459E-06,-20.722864151001,61.2103309631348,0.001475906348787,-0.59664785861969,-0.034697357565165,1.56830246851314E-05
493,7.96241379505955,2.48577380180359,0.025827653706074,9.80774211883545,-5.70843383229658E-07,-0.000322160631185,-3.77100695914123E-06,-20.6748733520508,61.209831237793,0.001476974459365,-0.596649885177612,-0.03451294451952,1.53572327690199E-05
494,7.97241379483603,2.4657461643219,0.025619421154261,9.8085241317749,-5.61301931156777E-07,-0.000307759532006,-3.55543375007983E-06,-20.6266384124756,61.2093315124512,0.001478042569943,-0.596651971340179,-0.034342188388109,1.50368978211191E-05
495,7.98241379461251,2.46613264083862,-0.014378375373781,9.80738735198975,-5.6288854466402E-07,-0.000294276949717,-3.41221721100737E-06,-20.5781555175781,61.2088279724121,0.001478996244259,-0.596653997898102,-0.034171435981989,1.47155215017847E-05
496,7.992413794389,2.42610716819763,-0.014794880524278,9.80856132507324,-7.15067812961934E-07,-0.000280471605947,-4.29677083957358E-06,-20.5294303894043,61.2083206176758,0.001479949918576,-0.596656441688538,-0.034007508307695,1.43072902574204E-05
497,8.00241379416548,2.50566172599792,0.026036063209176,9.80814075469971,-7.53961103328038E-07,-0.000267867115326,-4.4813527892984E-06,-20.4804592132568,61.2078094482422,0.001480865408666,-0.596659004688263,-0.033864077180624,1.38768600663752E-05
498,8.01241379394196,2.42605543136597,-0.014794666320086,9.80781173706055,8.97295649338048E-07,-0.000255917810136,-4.0064542190521E-06,-20.4312400817871,61.2072982788086,0.001481704646721,-0.596661150455475,-0.033706981688738,1.43922688948805E-05
499,8.02241379371844,2.46603059768677,-0.014377843588591,9.80855751037598,1.65844573984941E-06,-0.000244386901613,-4.72807687401655E-06,-20.381778717041,61.2067794799805,0.001482543884777,-0.596663892269135,-0.033570379018784,1.53441142174415E-05
500,8.03241379349493,2.44600796699524,-0.01458590850234,9.80781173706055,1.31504270939331E-06,-0.000233052167459,-2.91246556116675E-06,-20.3320732116699,61.2062644958496,0.001483306870796,-0.596665680408478,-0.033433772623539,1.60985655384138E-05
501,8.04241379327141,2.46556830406189,0.02562015876174,9.80856895446777,-1.33943319724494E-06,-0.000222054150072,-4.17062801716384E-06,-20.2821216583252,61.2057418823242,0.0014840697404,-0.596667945384979,-0.033304002135992,1.53325327119092E-05
502,8.05241379304789,2.44596600532532,-0.014585825614631,9.80820465087891,4.00074611661694E-07,-0.000211846752791,-2.95244376502524E-06,-20.2319259643555,61.2052192687988,0.001484794542193,-0.596669793128967,-0.033187888562679,1.55627294589067E-05
503,8.06241379282437,2.44635200500488,-0.014585617929697,10.5177412033081,-4.99589759783703E-07,-0.000237895379541,-2.98900704365224E-06,-20.1814842224121,61.2046928405762,0.001556434552185,-0.596671342849731,-0.033051282167435,1.52775173773989E-05
504,8.07241379260086,2.4254322052002,0.025203824043274,9.68196296691895,3.94810854231764E-07,-0.000225291252718,-3.01161799143301E-06,-20.130802154541,61.2041625976562,0.001615409855731,-0.59667307138443,-0.032921511679888,1.55046782310819E-05
505,8.08241379237734,2.50585508346558,-0.013960901647806,9.70060443878174,6.88484988131677E-07,-0.000194160835235,-1.25546023355128E-06,-20.0798721313477,61.2036323547363,0.001663589384407,-0.59667307138443,-0.032921511679888,1.55046782310819E-05
506,8.09241379215382,2.36541748046875,0.024579117074609,9.7170991897583,-2.01402599486755E-07,-0.000201549977646,-1.50459004544246E-06,-20.0287036895752,61.2030982971191,0.001702613779344,-0.59667444229126,-0.032696112990379,1.57846661750227E-05
507,8.1024137919303,2.50583386421204,-0.013960785232484,9.72999000549316,-6.47463380687441E-08,-0.000158578157425,4.81844779187668E-07,-19.9772853851318,61.2025604248047,0.001733779907227,-0.59667444229126,-0.032696112990379,1.57846661750227E-05
508,8.11241379170679,2.3454008102417,0.024370828643441,9.74496459960938,-5.18831768658856E-07,-0.000196707667783,-2.08336814466747E-06,-19.9256343841553,61.2020263671875,0.001758575439453,-0.596675395965576,-0.03249803930521,1.54508088598959E-05
509,8.12241379148327,1.12584519386292,-0.028331914916635,9.76397514343262,-1.37067928562828E-07,-0.000507342978381,1.03966403912636E-05,-19.8738708496094,61.2014884948731,0.00177883147262,-0.596669375896454,-0.032211169600487,1.53688924910966E-05
510,8.13241379125975,0.985352635383606,0.010208023712039,9.7770299911499,-4.11664984767413E-07,-0.000905034481548,-5.72005183130386E-06,-19.8220081329346,61.2009468078613,0.001795844989829,-0.596672713756561,-0.031678415834904,1.51348649524152E-05
511,8.14241379103623,-5.07496786117554,-0.012901385314763,9.83289241790772,5.82152495098853E-07,-0.002672420116141,-3.9891647247714E-06,-19.7706527709961,61.2004089355469,0.001814880291931,-0.596674919128418,-0.030148454010487,1.54696717800107E-05
512,8.15241379081272,1.50524687767029,-0.024374563246966,9.7653751373291,-9.93067246213286E-08,-0.002324084751308,-2.92049008976392E-07,-19.7191505432129,61.1998710632324,0.001829528715462,-0.596675217151642,-0.028816565871239,1.54128447320545E-05
513,8.1624137905892,-2.47605395317078,0.054172102361918,9.80469036102295,1.13885070263109E-08,-0.002926984103397,-3.19934952131007E-06,-19.6678943634033,61.1993408203125,0.001843528705649,-0.596677005290985,-0.027143171057105,1.54203098645667E-05
514,8.17241379036568,1.76471674442291,-0.021666811779142,9.76724433898926,6.62405682305689E-07,-0.002351599978283,-2.93171024168259E-06,-19.6164627075195,61.198802947998,0.001853332505561,-0.596678793430328,-0.025783963501453,1.580062416906E-05
515,8.18241379014216,-2.75613951683044,0.011258387938142,9.81421184539795,8.0126284274229E-07,-0.002970795612782,-2.9576051474578E-06,-19.5653038024902,61.1982688903809,0.001863441430032,-0.596680462360382,-0.02409690618515,1.62604374054354E-05
516,8.19241378991865,2.20419239997864,-0.01708447560668,9.76792430877686,9.38788957682846E-07,-0.002182990778238,-7.14025816250796E-07,-19.5139293670654,61.1977348327637,0.001869430532679,-0.596680998802185,-0.022846981883049,1.67984944710042E-05
517,8.20241378969513,-2.3966372013092,0.015007294714451,9.81432437896729,-6.74591262850299E-07,-0.002689432818443,-3.51569337908586E-06,-19.4627933502197,61.1972007751465,0.00187576294411,-0.596683025360107,-0.021303359419108,1.64127886819188E-05
518,8.21241378947161,2.42374038696289,-0.0147934416309,9.77557468414307,-7.89573448400915E-07,-0.001835196278989,-1.77889569386025E-06,-19.4114151000977,61.1966667175293,0.00187873840332,-0.596684038639069,-0.020251510664821,1.59607970999787E-05
519,8.22241378924809,-2.13706040382385,0.017714716494083,9.81528377532959,-1.43918569506241E-07,-0.002318883547559,-2.80042240774492E-06,-19.3602523803711,61.1961364746094,0.001882171607576,-0.596685707569122,-0.018912792205811,1.58788934641052E-05
520,8.23241378902458,2.66336250305176,-0.01229402795434,9.77825927734375,-3.62166360901028E-07,-0.001430523116142,-1.66819984315225E-06,-19.3088207244873,61.1955986022949,0.00188251491636,-0.596686601638794,-0.018106831237674,1.56716705532745E-05
521,8.24241378880106,-1.87740027904511,0.020422279834747,9.81857109069824,6.69525775265356E-07,-0.001913304789923,-3.03705678561528E-06,-19.2575798034668,61.195068359375,0.001883659278974,-0.596688449382782,-0.017007170245051,1.60558392963139E-05
522,8.25241378857754,2.90306329727173,-0.009794514626265,9.78055667877197,-4.20749813656585E-07,-0.001019618590362,-1.87905345683248E-06,-19.2060489654541,61.1945304870605,0.001881942735054,-0.596689403057098,-0.016426604241133,1.58150778588606E-05
523,8.26241378835402,-1.67724323272705,-0.017492974177003,9.82075691223145,-1.05493472801754E-06,-0.001517958240584,-2.93651874017087E-06,-19.1546840667725,61.1939926147461,0.001881256117485,-0.596691191196442,-0.015552340075374,1.52111333591165E-05
524,8.27241378813051,3.12284088134766,-0.007503379136324,9.78285121917725,7.04598051015637E-07,-0.000633859774098,2.25437062795208E-07,-19.1030082702637,61.1934547424316,0.001877937233076,-0.596691012382507,-0.015190339647234,1.56148253154242E-05
525,8.28241378790699,-1.45784759521484,0.024796070531011,9.82372283935547,7.21072694886971E-07,-0.001152893994004,-1.00186593954277E-06,-19.051477432251,61.1929168701172,0.001875953632407,-0.5966916680336,-0.014520981349051,1.60281178978039E-05
526,8.29241378768347,3.32310605049133,-0.04541826620698,9.78437328338623,8.3242764503666E-07,-0.00028574001044,1.64050265993865E-06,-18.9996166229248,61.1923751831055,0.001871490385383,-0.596690654754639,-0.014363886788488,1.65048077178653E-05
527,8.30241378745995,-1.27838265895844,0.066668473184109,9.82480525970459,-6.70909287237009E-07,-0.000830075936392,1.45701619658212E-07,-18.9478816986084,61.1918411254883,0.001868476858363,-0.596690654754639,-0.013885773718357,1.612038249732E-05
528,8.31241378723644,3.48259973526001,-0.003754259087145,9.78627014160156,-2.89714989776257E-07,1.6181549653993E-05,5.62675836590643E-07,-18.8957996368408,61.1912956237793,0.001863174373284,-0.596690654754639,-0.013885773718357,1.612038249732E-05
529,8.32241378701292,-1.07719492912292,-0.051242157816887,9.82627677917481,7.5944029731545E-07,-0.000551030563656,3.74674954173315E-07,-18.8438262939453,61.1907539367676,0.00185947411228,-0.596690177917481,-0.013585245236755,1.63894019351574E-05
530,8.3324137867894,3.62256765365601,-0.002296410966665,9.78739070892334,4.48837305100369E-08,0.000271348573733,3.53290215571178E-06,-18.7914905548096,61.1902084350586,0.00185359956231,-0.596688091754913,-0.013742339797318,1.64146367751528E-05
531,8.34241378656589,-0.918457686901092,0.070417650043964,9.8277645111084,2.7783713107965E-07,-0.000316024175845,9.80627419266966E-07,-18.7392444610596,61.1896667480469,0.00184947962407,-0.596687614917755,-0.013557924889028,1.65736710187048E-05
532,8.35241378634237,3.78299236297607,-0.040628179907799,9.78848743438721,-8.07388857992919E-07,0.000483625510242,2.07299672183581E-06,-18.6866226196289,61.1891212463379,0.001843299833126,-0.596686184406281,-0.013837962411344,1.61107891472056E-05
533,8.36241378611885,-0.778000593185425,0.031877711415291,9.82812023162842,-2.89041452106176E-07,-0.000122876415844,4.55354580708445E-08,-18.6340789794922,61.1885719299316,0.001838912954554,-0.596686184406281,-0.013837962411344,1.61107891472056E-05
534,8.37241378589533,3.90303730964661,-0.039378706365824,9.78881931304932,-1.16363298729993E-06,0.000653840659652,1.56880764734524E-06,-18.5811462402344,61.1880226135254,0.001832504174672,-0.596685290336609,-0.014138490892947,1.52782577060862E-05
535,8.38241378567182,-0.657538712024689,-0.006870575249195,9.82923698425293,-5.97055020534754E-07,3.28553942381404E-05,-1.34365711801365E-06,-18.5282764434814,61.1874694824219,0.001828002859838,-0.596685290336609,-0.014138490892947,1.52782577060862E-05
536,8.3924137854483,4.00269603729248,0.001660558744334,9.78952598571777,1.1643221569102E-06,0.000789206591435,1.64075731845514E-06,-18.4750099182129,61.1869125366211,0.001821556012146,-0.59668505191803,-0.014609773643315,1.56032365339342E-05
537,8.40241378522478,-0.517048835754395,-0.045410394668579,9.82958602905273,6.38654285012308E-07,0.000154365014168,1.70237137808726E-06,-18.4217929840088,61.1863555908203,0.001817054697312,-0.59668505191803,-0.014609773643315,1.56032365339342E-05
538,8.41241378500126,4.10196018218994,0.082697421312332,9.78983974456787,5.50256507025892E-09,0.000890880590305,4.67404925075243E-06,-18.3681678771973,61.1857986450195,0.001810646033846,-0.596681475639343,-0.01521083060652,1.59713617904345E-05
539,8.42241378477775,-0.417342960834503,-0.004371086601168,9.82994937896729,-5.18142222460938E-08,0.000247599149588,1.1518746987349E-06,-18.3145847320557,61.1852416992187,0.001806220971048,-0.596680998802185,-0.015354264527559,1.59414830704918E-05
540,8.43241378455423,4.16290903091431,0.003326479578391,9.79015445709229,8.15621149286017E-07,0.000966797233559,3.41855138685787E-06,-18.2605838775635,61.1846809387207,0.001799926743843,-0.596678972244263,-0.015907509252429,1.64082539413357E-05
541,8.44241378433071,-0.336805284023285,-0.04353578388691,9.83031272888184,-8.39567803723185E-07,0.00031521829078,3.12518636746972E-06,-18.2066173553467,61.1841201782227,0.001795654301532,-0.596677124500275,-0.016085093840957,1.59267165145138E-05
542,8.45241378410719,4.28261661529541,0.044573586434126,9.79044437408447,-3.02831807630355E-07,0.001018670620397,3.10089353661169E-06,-18.1522235870361,61.1835517883301,0.001789550762624,-0.596675395965576,-0.016672490164638,1.57526883413084E-05
543,8.46241378388368,-0.256673783063889,-0.042702745646238,9.82991218566895,-3.75495829985084E-07,0.000361568148946,-8.6378406649601E-07,-18.0978565216064,61.1829872131348,0.001785430824384,-0.596675872802734,-0.016877396032214,1.55376892507775E-05
544,8.47241378366016,4.3031702041626,0.004784002900124,9.79152297973633,4.58239668432725E-07,0.001049831160344,1.64728373874823E-06,-18.0430583953857,61.1824150085449,0.001779594342224,-0.596674859523773,-0.01747845299542,1.57999329530867E-05
545,8.48241378343664,-0.156954228878021,-0.001663517672569,9.82912254333496,-3.25322275784856E-07,0.000390988803701,2.91035757982172E-06,-17.9882755279541,61.1818428039551,0.001775665208697,-0.596673369407654,-0.017703849822283,1.56130536197452E-05
546,8.49241378321312,4.38330888748169,0.005616785027087,9.79181480407715,9.63400648146262E-09,0.001065961201675,3.67459369954304E-06,-17.9330558776855,61.181266784668,0.00177005759906,-0.596671044826508,-0.018311735242605,1.56179121404421E-05
547,8.50241378298961,-0.096813358366489,-0.00103861046955,9.82910633087158,7.98907763055468E-07,0.00040491411346,2.47554112320358E-07,-17.8778457641602,61.1806907653809,0.001766357338056,-0.596670985221863,-0.018543962389231,1.60755953402258E-05
548,8.51241378276609,4.40345239639282,0.005824911408126,9.79212379455566,6.56483294392274E-08,0.001067046192475,5.04455374539248E-06,-17.8221950531006,61.1801109313965,0.001761016785167,-0.596668004989624,-0.019158679991961,1.61122679855907E-05
549,8.52241378254257,-0.056670241057873,-0.000621951010544,9.82909297943115,1.01820546660747E-06,0.000406155333621,5.34789887751685E-06,-17.7665519714355,61.1795310974121,0.001757583580911,-0.59666520357132,-0.019390905275941,1.66946192621253E-05
550,8.53241378231905,4.48442459106445,-0.073338106274605,9.79165077209473,-4.78411379845056E-07,0.001058234833181,5.4870979511179E-06,-17.7104606628418,61.1789398193359,0.001752471900545,-0.596661686897278,-0.019998792558909,1.64194261742523E-05
551,8.54241378209554,-0.017363714054227,0.079790323972702,9.82908153533936,1.12173347588396E-06,0.000397403608076,1.25216456581256E-06,-17.654369354248,61.178352355957,0.001749267568812,-0.596661150455475,-0.02021735906601,1.70618659467436E-05
552,8.55241378187202,4.50414752960205,-0.033132288604975,9.792724609375,8.65824006268667E-07,0.001039766008034,9.62389549385989E-06,-17.5978298187256,61.1777610778809,0.00174449919723,-0.596655488014221,-0.020818416029215,1.75559944182169E-05
553,8.5624137816485,0.04360643401742,0.00041946573765,9.82829475402832,-7.95910807482869E-07,0.000380652752938,9.59295994107379E-06,-17.5412845611572,61.1771697998047,0.001741561805829,-0.596650123596191,-0.021036980673671,1.7097945601563E-05
554,8.57241378142498,4.52386665344238,0.007072949316353,9.7926549911499,1.1678243794222E-07,0.001014663954265,7.92467562860111E-06,-17.4842891693115,61.1765747070313,0.001737060490996,-0.596645474433899,-0.02161754667759,1.71631745615741E-05
555,8.58241378120147,0.08373885601759,0.000836023711599,9.82789707183838,2.54307082059313E-07,0.000358315970516,5.46499268239131E-06,-17.4272842407227,61.1759796142578,0.001734352088533,-0.596642434597015,-0.021822452545166,1.7307689631707E-05
556,8.59241378097795,4.54399633407593,0.007280484773219,9.79296779632568,5.44395675206033E-07,0.000984225189313,1.21772955026245E-05,-17.3698272705078,61.1753807067871,0.001730117714033,-0.596635341644287,-0.022382529452443,1.76168923644582E-05
557,8.60241378075443,0.123865403234959,0.001252631773241,9.82749843597412,5.83582846047648E-07,0.000331256247591,1.22517185445759E-05,-17.3123588562012,61.1747779846191,0.001727638184093,-0.596628546714783,-0.022573774680495,1.7948514141608E-05
558,8.61241378053091,4.54412126541138,0.007279574871063,9.79329204559326,1.70250177689013E-06,0.000950781279244,1.26955956147867E-05,-17.2544326782227,61.1741752624512,0.00172367086634,-0.596621036529541,-0.023113358765841,1.89210859389277E-05
559,8.6224137803074,0.144405007362366,-0.038536727428436,9.82749080657959,7.77879051838681E-07,0.000301772059174,8.80041989148594E-06,-17.1964950561523,61.1735687255859,0.001721458393149,-0.596616268157959,-0.023297773674131,1.93647338164737E-05
560,8.63241378008388,4.60382127761841,0.047901131212711,9.79282569885254,-4.61315892152925E-07,0.000913933210541,1.46960310303257E-05,-17.1380977630615,61.1729583740234,0.001717719947919,-0.596607625484467,-0.023816868662834,1.90969713003142E-05
561,8.64241377986036,0.144521147012711,-0.038536854088307,9.82787132263184,-3.83931762826251E-07,0.000269337702775,1.57815047714394E-05,-17.0796852111816,61.1723480224609,0.001715774531476,-0.59659868478775,-0.023973962292075,1.88732046808582E-05
562,8.65241377963685,4.62434911727905,0.008110128343105,9.79238510131836,5.86484475206817E-07,0.000875624886248,1.54175704665249E-05,-17.0208129882813,61.1717338562012,0.001712264958769,-0.596589803695679,-0.024472566321492,1.92054849321721E-05
563,8.66241377941333,0.163796678185463,0.041667059063912,9.82938480377197,-8.52368629011835E-08,0.000235933446675,1.1717900633812E-05,-16.9619216918945,61.1711158752441,0.00171070091892,-0.596583127975464,-0.024609170854092,1.91537710634293E-05
564,8.67241377918981,4.58487129211426,-0.032305538654327,9.78853988647461,1.08856841052329E-06,0.000836897466797,1.96560231415788E-05,-16.9025726318359,61.1704978942871,0.001707191462629,-0.596571803092957,-0.025087283924222,1.97726458281977E-05
565,8.68241377896629,0.264727175235748,-0.037287369370461,9.83162975311279,1.08782764129955E-07,0.000201916962396,1.96636265172856E-05,-16.8432006835938,61.1698760986328,0.001705856295303,-0.596560478210449,-0.025203397497535,1.98299931071233E-05
566,8.69241377874278,4.54413843154907,0.047272101044655,9.7885103225708,2.32269826483389E-06,0.000798841880169,1.95311258721631E-05,-16.7833709716797,61.1692504882813,0.001702575595118,-0.596549272537231,-0.025661019608379,2.11558217415586E-05
567,8.70241377851926,0.284387946128845,0.002918867394328,9.83123683929443,8.09242408195132E-07,0.000168223705259,1.66933696164051E-05,-16.7235145568848,61.1686248779297,0.001701431232505,-0.596549272537231,-0.025661019608379,2.11558217415586E-05
568,8.71241377829574,4.5846438407898,0.007689007557929,9.78883171081543,2.35218564625939E-07,0.000761037168559,2.32964393944712E-05,-16.6632022857666,61.1679954528809,0.001698379521258,-0.596526443958283,-0.026193773373962,2.17438973777462E-05
569,8.72241377807222,0.254897266626358,-0.037391312420368,9.83086490631104,1.30560650291045E-07,0.000134636982693,2.24138002522523E-05,-16.6028614044189,61.167366027832,0.001697425846942,-0.596526443958283,-0.026193773373962,2.17438973777462E-05
570,8.73241377784871,4.60472536087036,0.007895189337432,9.78878498077393,4.84390000110579E-07,0.000723729259335,2.28783410420874E-05,-16.542064666748,61.1667327880859,0.001694564823993,-0.596500217914581,-0.026678716763854,2.20843212446198E-05
571,8.74241377762519,0.274146527051926,0.042812507599592,9.83085346221924,2.71197421852776E-07,0.000102506681287,1.87181012734072E-05,-16.481237411499,61.1660957336426,0.001693801837973,-0.596500217914581,-0.026678716763854,2.20843212446198E-05
572,8.75241377740167,4.58522033691406,-0.032312709838152,9.78875732421875,1.69787404047383E-06,0.000687752093654,2.61120931099867E-05,-16.4199523925781,61.1654586791992,0.001691131503321,-0.596474647521973,-0.027122680097818,2.32004695135402E-05
573,8.76241377717815,0.304637581110001,0.003127057338133,9.82855033874512,-1.64731275731356E-07,7.203590212157E-05,2.43999165832065E-05,-16.3586406707764,61.1648178100586,0.001690330449492,-0.596474647521973,-0.027122680097818,2.32004695135402E-05
574,8.77241377695464,4.58487796783447,0.007682877127081,9.79291820526123,2.15649222923275E-07,0.000653378025163,2.46985255216714E-05,-16.2968673706055,61.1641731262207,0.001688041607849,-0.596446573734283,-0.027552980929613,2.32162328757113E-05
575,8.78241377673112,0.304709106683731,0.003126912284642,9.82625770568848,-3.37821814966333E-09,4.26342558057513E-05,2.06707736651879E-05,-16.2350654602051,61.1635284423828,0.001687393174507,-0.596446573734283,-0.027552980929613,2.32162328757113E-05
576,8.7924137765076,4.58535766601563,-0.032317072153092,9.79327201843262,9.73417627392337E-07,0.00062004243955,2.74486501439242E-05,-16.1728057861328,61.1628799438477,0.001685295021161,-0.596418917179108,-0.027914982289076,2.37587391893612E-05
577,8.80241377628408,0.314354926347733,0.043228786438704,9.82510662078857,2.49851012767976E-07,1.37165325213573E-05,2.68657749984413E-05,-16.1105155944824,61.1622314453125,0.001684722839855,-0.596418917179108,-0.027914982289076,2.37587391893612E-05
578,8.81241377606057,4.57541847229004,-0.032423563301563,9.79324913024902,-2.7503634214554E-07,0.000589372764807,2.53906036959961E-05,-16.0477676391602,61.1615753173828,0.00168270105496,-0.596388876438141,-0.028276981785894,2.37296626437455E-05
579,8.82241377583705,0.324415862560272,0.043332703411579,9.82624244689941,2.16843503153541E-07,-1.25205060612643E-05,2.17975648411084E-05,-15.9849863052368,61.1609230041504,0.001682319561951,-0.596388876438141,-0.028276981785894,2.37296626437455E-05
580,8.83241377561353,4.57547187805176,-0.032425779849291,9.79246330261231,2.88272246962151E-07,0.00056020898046,2.76609389402438E-05,-15.9217500686646,61.1602630615234,0.001680412213318,-0.596360504627228,-0.028591170907021,2.40049994317815E-05
581,8.84241377539001,0.324885904788971,0.003334762295708,9.82586097717285,7.92510945757385E-08,-3.78739350708201E-05,2.57144893112127E-05,-15.8584814071655,61.1596031188965,0.00168010708876,-0.596360504627228,-0.028591170907021,2.40049994317815E-05
582,8.8524137751665,4.56510496139526,0.007465707603842,9.79358673095703,-1.10403527742164E-06,0.000532514997758,2.18892328121001E-05,-15.7947559356689,61.1589393615723,0.001678390428424,-0.59633332490921,-0.028871208429337,2.34042472584406E-05
583,8.86241377494298,0.364931374788284,0.003750818781555,9.82507705688477,-8.25820450245374E-07,-6.14615928498097E-05,1.5948637155816E-05,-15.7309942245483,61.1582756042481,0.001678199740127,-0.59633332490921,-0.028871208429337,2.34042472584406E-05
584,8.87241377471946,4.54514980316162,0.007255828939378,9.79281520843506,-5.64076742648467E-07,0.000505303905811,1.87993609870318E-05,-15.6667795181274,61.1576042175293,0.001676521264017,-0.59631335735321,-0.029130754992366,2.25978146772832E-05
585,8.88241377449594,0.364976465702057,0.003750555682927,9.82622051239014,-8.84604958173441E-07,-8.27587500680238E-05,1.64052908075973E-05,-15.6025285720825,61.1569366455078,0.001676483079791,-0.59631335735321,-0.029130754992366,2.25978146772832E-05
586,8.89241377427243,4.51560592651367,-0.033055767416954,9.79242897033691,-1.11369377009396E-06,0.000482153787743,1.33530138555216E-05,-15.5378265380859,61.1562614440918,0.001674919039942,-0.596296310424805,-0.029356151819229,2.14441988646286E-05
587,8.90241377404891,0.394596815109253,0.044060297310352,9.825439453125,-1.39556209433067E-06,-0.000103575708636,9.77937361312797E-06,-15.4730854034424,61.1555900573731,0.001674919039942,-0.596296310424805,-0.029356151819229,2.14441988646286E-05
588,8.91241377382539,4.51564359664917,-0.033056996762753,9.79317378997803,-7.70331155308668E-07,0.000459147500806,1.28422843772569E-05,-15.4078941345215,61.1549110412598,0.00167346955277,-0.596283435821533,-0.02957471832633,2.01965758606093E-05
589,8.92241377360188,0.385051131248474,0.0039580934681,9.8254451751709,-1.26191901017592E-06,-0.000121778793982,1.07518362710834E-05,-15.3426628112793,61.1542320251465,0.001673583989032,-0.596283435821533,-0.02957471832633,2.01965758606093E-05
590,8.93241377337836,4.52525615692139,0.007043890655041,9.79277420043945,2.28671481750098E-07,0.000437874521594,9.27898963709595E-06,-15.2769823074341,61.1535491943359,0.00167221063748,-0.596271872520447,-0.029745472595096,1.95986503968015E-05
591,8.94241377315484,0.374664485454559,0.043851681053639,9.82506656646729,-6.91950504005945E-07,-0.000138956471346,5.98071528656874E-06,-15.2112627029419,61.1528663635254,0.001672363257967,-0.596271872520447,-0.029745472595096,1.95986503968015E-05
592,8.95241377293132,4.49611711502075,-0.073264800012112,9.79315948486328,-1.12903819626808E-06,0.000418438226916,8.35938317322871E-06,-15.145094871521,61.1521759033203,0.001671066274866,-0.596263647079468,-0.029902566224337,1.85510252777021E-05
593,8.96241377270781,0.404689759016037,0.044163644313812,9.82504940032959,5.40196708698204E-07,-0.000155477537191,6.31375087323249E-06,-15.0788860321045,61.1514892578125,0.001671295147389,-0.596263647079468,-0.029902566224337,1.85510252777021E-05
594,8.97241377248429,4.49531030654907,0.006730346009135,9.79314804077148,-5.60520106773765E-07,0.000400458986405,5.23993230672204E-06,-15.0122299194336,61.1507949829102,0.001670074416325,-0.596257030963898,-0.030052831396461,1.85359003808117E-05
595,8.98241377226077,0.405131816864014,0.004165763035417,9.82504844665527,2.72976308224315E-07,-0.000169551320141,2.71329372480977E-06,-14.9455327987671,61.1501007080078,0.001670379657298,-0.596257030963898,-0.030052831396461,1.85359003808117E-05
596,8.99241377203725,4.46574974060059,-0.033580075949431,9.79315376281738,-6.70561121296487E-07,0.000383532722481,5.55766746401787E-06,-14.8783893585205,61.1494026184082,0.001669235178269,-0.596252501010895,-0.03017577342689,1.8305639969185E-05
597,9.00241377181374,0.414716005325317,0.044267494231463,9.82466316223145,-8.12031203167862E-07,-0.000182914416655,3.4479098758311E-06,-14.8112058639526,61.1487045288086,0.001669578487054,-0.596250534057617,-0.030059661716223,1.78393183887238E-05
598,9.01241377159022,4.47576475143433,-0.033476516604424,9.7935209274292,-1.38942766625405E-06,0.000367683242075,2.99919133794901E-06,-14.7435750961304,61.1480026245117,0.001668510376476,-0.596248865127564,-0.030271396040917,1.7042331819539E-05
599,9.0224137713667,0.395150721073151,0.004061223939061,9.82428932189941,-1.61801904141612E-06,-0.000194698382984,7.65966603921697E-07,-14.6759042739868,61.1472969055176,0.001668891869485,-0.59624844789505,-0.030162114650011,1.61150310304947E-05
600,9.03241377114318,4.47536516189575,0.006521026603878,9.79351806640625,6.27311010248377E-07,0.000353071343852,3.31926844410191E-06,-14.6077880859375,61.1465911865234,0.001667861943133,-0.596246421337128,-0.030367018654943,1.64734574354952E-05
601,9.04241377091967,0.405164211988449,0.004165285732597,9.82428359985352,-4.99875795867411E-07,-0.000206033015274,3.01473107811034E-07,-14.5396308898926,61.145881652832,0.001668281503953,-0.596246421337128,-0.030244076624513,1.61869429575745E-05
602,9.05241377069615,4.45537948608398,0.006312774959952,9.79352188110352,-5.97690984704968E-07,0.000341087928973,2.82328755929484E-07,-14.4710283279419,61.1451683044434,0.001667289645411,-0.596246063709259,-0.030442152172327,1.58444345288444E-05
603,9.06241377047263,0.415176540613174,0.004269227851182,9.82427787780762,-6.80987341183936E-07,-0.000215257561649,-1.5971538687154E-06,-14.4023857116699,61.1444549560547,0.001667747506872,-0.59624707698822,-0.030319208279252,1.54547160491347E-05
604,9.07241377024911,4.42580795288086,-0.033997312188149,9.79391193389893,-8.65999879806623E-07,0.000328169408021,-2.63060229599432E-07,-14.3333005905151,61.1437377929687,0.001666831900366,-0.59624719619751,-0.030503623187542,1.49585875988123E-05
605,9.0824137700256,0.444767862558365,0.044579308480024,9.82388019561768,1.33130299673212E-06,-0.000224432849791,-2.4360629140574E-06,-14.2641716003418,61.1430206298828,0.001667327829637,-0.596248626708984,-0.030373848974705,1.57221838890109E-05
606,9.09241376980208,4.40581846237183,-0.034205257892609,9.79391860961914,-1.90360810847778E-06,0.000317119178362,-2.85879400507838E-06,-14.1946029663086,61.1422996520996,0.001666450407356,-0.596250236034393,-0.030558263882995,1.46323391163605E-05
607,9.10241376957856,0.435193806886673,0.004477386362851,9.82350540161133,1.09068196252338E-06,-0.00023274369596,-9.74376416706946E-06,-14.1249914169312,61.1415748596191,0.001666946336627,-0.596256017684937,-0.030428491532803,1.52602151501924E-05
608,9.11241376935504,4.41540861129761,0.005897365510464,9.79429054260254,-3.77490709979611E-06,0.000306027446641,-1.2789186257578E-05,-14.0549373626709,61.1408500671387,0.001666107098572,-0.59626305103302,-0.030599245801568,1.31012366182404E-05
609,9.12241376913153,0.444783270359039,0.044578868895769,9.82426166534424,-1.74231172422878E-06,-0.000240098539507,-1.57545437105E-05,-13.9848413467407,61.1401214599609,0.001666717464104,-0.596272110939026,-0.030462641268969,1.21077819130733E-05
610,9.13241376890801,4.37624883651733,-0.074513681232929,9.7931661605835,-3.5228335946158E-06,0.000296159472782,-1.62739361257991E-05,-13.914306640625,61.1393890380859,0.001665878226049,-0.596281409263611,-0.030633397400379,1.00943598226877E-05
611,9.14241376868449,0.454788565635681,0.044682681560516,9.82425594329834,-6.16944305420475E-07,-0.000246496521868,-1.75079385371646E-05,-13.8437280654907,61.1386566162109,0.001666488591582,-0.596291542053223,-0.03049679286778,9.7461461336934E-06
612,9.15241376846097,4.38541984558106,0.005587426014245,9.79392242431641,-6.22754384949076E-07,0.00028785361792,-1.6507077816641E-05,-13.7727108001709,61.1379203796387,0.001665725721978,-0.596300840377808,-0.030653886497021,9.3944418040337E-06
613,9.16241376823746,0.4460409283638,-0.075414791703224,9.82540512084961,3.97215345060431E-08,-0.000252539728535,-1.84779109986266E-05,-13.7016496658325,61.1371765136719,0.001666526775807,-0.596311450004578,-0.030510453507304,9.42282895266544E-06
614,9.17241376801394,4.35458850860596,0.085272312164307,9.78974056243897,-7.34298623683571E-07,0.000279671512544,-1.63089698617114E-05,-13.6301536560059,61.1364326477051,0.001665534917265,-0.596320748329163,-0.030667547136545,9.00710620044265E-06
615,9.18241376779042,0.466043591499329,-0.075206510722637,9.8280668258667,4.65878912336848E-07,-0.00025722393184,-1.62731575983344E-05,-13.558611869812,61.1356887817383,0.00166637415532,-0.596329987049103,-0.030524114146829,9.27897872315953E-06
616,9.1924137675669,4.34500885009766,0.045171841979027,9.78974437713623,3.63523355417783E-07,0.000271567696473,-1.50574715007679E-05,-13.4866352081299,61.1349411010742,0.001665420481004,-0.59633868932724,-0.030688038095832,9.49190052779159E-06
617,9.20241376734339,0.465628266334534,-0.0352085493505,9.8276834487915,-4.72013709895691E-07,-0.000261757901171,-1.6261481505353E-05,-13.4146137237549,61.1341896057129,0.001666259719059,-0.596348106861115,-0.030530944466591,9.22639901546063E-06
618,9.21241376711987,4.34542512893677,0.005175267811865,9.79012680053711,-4.37471584291416E-07,0.000264975969912,-1.46328939081286E-05,-13.3421583175659,61.133430480957,0.001665344228968,-0.596356391906738,-0.030688038095832,8.98026974027744E-06
619,9.22241376689635,0.455212503671646,0.004685288760811,9.82769012451172,-2.00594740817905E-08,-0.000266494578682,-1.37299994094064E-05,-13.2696571350098,61.1326751708984,0.001666221534833,-0.596364259719849,-0.030530944466591,8.97298741620034E-06
620,9.23241376667284,4.32542610168457,0.004968280438334,9.79013633728027,1.12729298962222E-06,0.000258609710727,-1.07843143268838E-05,-13.196722984314,61.1319122314453,0.001665344228968,-0.59637051820755,-0.030688038095832,9.62218928179937E-06
621,9.24241376644932,0.475626409053803,-0.035104107111693,9.82729625701904,6.04245315116714E-07,-0.000270155753242,-1.01373070720001E-05,-13.1237440109253,61.1311492919922,0.001666221534833,-0.596376240253449,-0.030524114146829,9.97149709291989E-06
622,9.2524137662258,4.31542348861694,0.004865177441388,9.79052352905273,1.8354803614784E-06,0.000253144360613,-7.2971029112523E-06,-13.0503330230713,61.1303825378418,0.001665382296778,-0.596380412578583,-0.030667547136545,1.10253877210198E-05
623,9.26241376600228,0.464791893959045,0.044787842780352,9.82730293273926,1.28443832636549E-06,-0.000273196579656,-7.01542694514501E-06,-12.9768762588501,61.1296195983887,0.001666297903284,-0.596384406089783,-0.030510453507304,1.17634117486887E-05
624,9.27241376577877,4.29583883285522,-0.035340130329132,9.79015636444092,4.07929491075265E-07,0.000246994110057,-5.43817668585689E-06,-12.9029893875122,61.1288452148438,0.001665458665229,-0.596387505531311,-0.030653886497021,1.19988580991048E-05
625,9.28241376555525,0.495204448699951,0.005102448631078,9.82766628265381,8.61821092712489E-07,-0.000275784404948,-4.70382110506762E-06,-12.8290548324585,61.1280746459961,0.001666412339546,-0.596390247344971,-0.03049679286778,1.24940352179692E-05
626,9.29241376533173,4.28541898727417,0.00455410964787,9.78978157043457,1.51347705923399E-06,0.000242520283791,-1.19077594717965E-06,-12.7546920776367,61.1273002624512,0.001665573101491,-0.596390962600708,-0.030633397400379,1.33615658342023E-05
627,9.30241376510821,0.46520259976387,0.004790333565325,9.82768440246582,-1.37629456276045E-07,-0.000278372463072,-1.55088741848886E-06,-12.6802825927734,61.126522064209,0.001666526775807,-0.596391916275024,-0.030476301908493,1.32831928567612E-05
628,9.3124137648847,4.27541732788086,0.004450117237866,9.78978538513184,1.12610814539948E-06,0.000237370069954,1.74470574165753E-06,-12.6054468154907,61.1257400512695,0.001665687537752,-0.596390902996063,-0.030619736760855,1.39278736241977E-05
629,9.32241376466118,0.485615521669388,-0.034999087452889,9.82767391204834,1.42759711252438E-06,-0.000280142470729,1.76899970938393E-06,-12.5305624008179,61.1249580383301,0.001666641212069,-0.596389889717102,-0.030462641268969,1.47452619785327E-05
630,9.33241376443766,4.25499773025513,0.044239711016417,9.79018211364746,8.47395199343737E-07,0.000232798949583,4.77794492326211E-06,-12.4552536010742,61.1241722106934,0.001665840158239,-0.596387088298798,-0.030592415481806,1.52293523569824E-05
631,9.34241376421414,0.505608379840851,-0.034790746867657,9.82728099822998,1.33290063786262E-06,-0.00028199472581,4.46647254648269E-06,-12.3798952102661,61.1233863830566,0.001666793832555,-0.596384525299072,-0.030428491532803,1.59916853590403E-05
632,9.35241376399063,4.22540998458862,0.003929417580366,9.79058074951172,1.62393348546175E-06,0.000229328565183,7.08299967300263E-06,-12.3041133880615,61.1225967407227,0.001666030846536,-0.596380472183228,-0.030558263882995,1.69199374795426E-05
633,9.36241376376711,0.514770209789276,0.04530918225646,9.82689571380615,8.98490498002502E-07,-0.000283739675069,6.45648833597079E-06,-12.2282819747925,61.1218070983887,0.001666984520853,-0.596376776695251,-0.030401170253754,1.74327924469253E-05
634,9.37241376354359,4.21582126617432,-0.036172952502966,9.79058837890625,1.06881918782165E-06,0.000225643947488,8.71157681103796E-06,-12.1520280838013,61.1210098266602,0.001666221534833,-0.59637176990509,-0.030524114146829,1.8042495867121E-05
635,9.38241376332007,0.51518052816391,0.005311431363225,9.82651424407959,6.70882570830145E-07,-0.000284595997073,8.82595759321703E-06,-12.0757246017456,61.1202125549316,0.001667137141339,-0.596366703510284,-0.030367018654943,1.8424241716275E-05
636,9.39241376309656,4.21539974212647,0.003834950737655,9.79059028625488,-5.68156247027218E-05,0.000221872629481,-0.000320920022205,-11.9989995956421,61.1194114685059,0.001666335971095,-0.596550762653351,-0.03049679286778,0
637,9.40241376287304,0.486007750034332,-0.075001694262028,9.82767391204834,-4.52532076451462E-05,-0.000285825895844,-0.0003423144517,-11.9222259521484,61.1186065673828,0.001667327829637,-0.596746921539307,-0.030319208279252,-3.05175890389364E-05
638,9.41241376264952,4.22455644607544,0.083954654633999,9.79020977020264,-4.01321958634071E-05,0.000218865388888,-0.000377053045668,-11.8450317382813,61.1178016662598,0.001666564960033,-0.596962928771973,-0.030442152172327,-6.1035138060106E-05
639,9.422413762426,0.496000319719315,-0.074904255568981,9.826904296875,-3.14823373628315E-05,-0.000287344126264,-0.00038717823918,-11.7677879333496,61.1169891357422,0.001667518634349,-0.597184777259827,-0.030278226360679,-9.15527198230848E-05
640,9.43241376220249,4.18538570404053,0.003570328699425,9.79099750518799,-2.74094145424897E-05,0.000215954161831,-0.000409525790019,-11.6901254653931,61.1161766052246,0.001666793832555,-0.597419381141663,-0.030401170253754,-9.1552734375E-05
641,9.44241376197897,0.525157392024994,0.005403082352132,9.82612705230713,-1.94866606761934E-05,-0.000287262577331,-0.000405350321671,-11.6124114990234,61.1153602600098,0.001667709322646,-0.597651839256287,-0.030237246304751,-0.00012207027612
642,9.45241376175545,4.17496299743652,0.043492898344994,9.7913875579834,-1.73982225533109E-05,0.000213295221329,-0.000415125134168,-11.5342807769775,61.1145439147949,0.001666984520853,-0.59788966178894,-0.030367018654943,-0.0001220703125
643,9.46241376153193,0.50557154417038,-0.034799244254828,9.82651805877686,-1.04987793747569E-05,-0.000287951726932,-0.000406436942285,-11.4560995101929,61.1137237548828,0.001667938195169,-0.598122417926788,-0.030209925025702,-0.000122070305224
644,9.47241376130842,4.17537212371826,0.00352911488153,9.79100799560547,-9.18667137739249E-06,0.000209866848309,-0.000410200562328,-11.3775024414063,61.1128997802734,0.001667213393375,-0.598357319831848,-0.030319208279252,-0.000122070268844
645,9.4824137610849,0.505143165588379,0.005202615167946,9.82614040374756,-4.61984791400027E-06,-0.000288358744001,-0.000398011965444,-11.2988538742065,61.1120719909668,0.001668128883466,-0.598585605621338,-0.030148454010487,-0.000122070305224
646,9.49241376086138,4.16536569595337,0.003457649610937,9.79406833648682,-3.51207563653588E-06,0.000207909484743,-0.000394555361709,-11.2197895050049,61.1112480163574,0.001667671138421,-0.598811447620392,-0.030271396040917,-0.000122070305224
647,9.50241376063786,0.515135288238525,0.00531103182584,9.82346439361572,4.25033363171679E-07,-0.000288710580207,-0.000378418859327,-11.1406745910645,61.1104202270508,0.001668586744927,-0.599028289318085,-0.030114302411676,-0.000122070290672
648,9.51241376041435,4.13577651977539,-0.036822453141213,9.79141712188721,-1.23627467019105E-06,0.000205696560442,-0.000377583521185,-11.0611476898193,61.1095848083496,0.001667861943133,-0.599244713783264,-0.030223585665226,-0.000122070305224
649,9.52241376019083,0.524708688259125,0.045417204499245,9.82689189910889,3.40381848218385E-06,-0.00028850621311,-0.000357661396265,-10.9815673828125,61.1087493896484,0.00166885368526,-0.599449515342712,-0.030059661716223,-0.000122070290672
650,9.53241375996731,4.12534999847412,0.003099978202954,9.79066276550293,1.13330736439821E-06,0.000202848401386,-0.000351473485352,-10.9015741348267,61.1079139709473,0.001668128883466,-0.599650800228119,-0.03017577342689,-0.000122070305224
651,9.5424137597438,0.535538136959076,-0.034470159560442,9.82650661468506,4.0412082853436E-06,-0.00028821369051,-0.000332961033564,-10.8215293884277,61.1070747375488,0.001669082557783,-0.59984165430069,-0.030018679797649,-0.000122070290672
652,9.55241375952028,4.1153416633606,0.003022286109626,9.7914342880249,5.71663986193016E-06,0.000200973561732,-0.00032314346754,-10.7410736083984,61.1062278747559,0.001668395940214,-0.600026726722717,-0.030121132731438,-0.000122070290672
653,9.56241375929676,0.525528132915497,-0.034571591764689,9.82612895965576,8.06825300969649E-06,-0.000288688024739,-0.000302873784676,-10.6605663299561,61.1053848266602,0.001669349614531,-0.600200295448303,-0.029957208782435,-0.000122070290672
654,9.57241375907324,4.10449695587158,0.082937598228455,9.79182624816895,6.07916672379361E-06,0.000198622423341,-0.000292923359666,-10.5796480178833,61.1045379638672,0.001668701181188,-0.600368022918701,-0.030080150812864,-0.000122070305224
655,9.58241375884973,0.525520920753479,-0.034568630158901,9.82536602020264,9.55132145463722E-06,-0.000287886796286,-0.000276179693174,-10.4986782073975,61.1036911010742,0.001669616671279,-0.600526392459869,-0.029923057183623,-0.000122070305224
656,9.59241375862621,4.08574533462524,-0.037237953394652,9.79222106933594,6.330810720101E-06,0.000196961322217,-0.000268121249974,-10.4172992706299,61.1028366088867,0.001668968121521,-0.600679874420166,-0.030018679797649,-9.15527416509576E-05
657,9.60241375840269,0.544672071933746,0.045644629746676,9.8261194229126,7.47162039260729E-06,-0.000287398754153,-0.000251522928011,-10.3358678817749,61.1019821166992,0.001669959980063,-0.600823998451233,-0.029861586168408,-9.15527198230848E-05
658,9.61241375817917,4.06910276412964,-0.357348263263702,9.79109001159668,-0.000453257525805,0.000193758722162,-0.002914949320257,-10.2540292739868,61.1010932922363,0.001669273362495,-0.602494180202484,-0.029964039102197,-0.000366210879292
659,9.62241375795566,0.554659724235535,0.045698691159487,9.82878684997559,-0.000366522202967,-0.00028719616239,-0.003084598807618,-10.172137260437,61.1002044677734,0.00167049409356,-0.60426127910614,-0.029800113290548,-0.000579833926167
660,9.63241375773214,4.0465784072876,-0.117377936840057,9.78728580474854,-0.000328666792484,0.000192929568584,-0.00338981160894,-10.0898399353027,61.0993003845215,0.001669654855505,-0.606203734874725,-0.029923057183623,-0.000762939394917
661,9.64241375750862,0.554649293422699,0.045678738504648,9.82840824127197,-0.000252299068961,-0.000286495574983,-0.003456324571744,-10.0074882507324,61.0983963012695,0.001670684781857,-0.608183979988098,-0.029765963554382,-0.000915527401958
662,9.6524137572851,4.03657913208008,-0.117243215441704,9.79111194610596,-0.000228558696108,0.00019154229085,-0.003675593994558,-9.92473220825195,61.097484588623,0.001670036232099,-0.610289990901947,-0.029861586168408,-0.001037597423419
663,9.66241375706159,0.554634511470795,0.04568225517869,9.82649898529053,-0.000161301562912,-0.000286250840873,-0.003626634832472,-9.84192276000977,61.0965690612793,0.001671066274866,-0.612367868423462,-0.02969766035676,-0.001129149924964
664,9.67241375683807,4.03614807128906,-0.076974503695965,9.79149913787842,-0.000145616635564,0.000189780490473,-0.003742632223293,-9.75870990753174,61.0956497192383,0.001670455909334,-0.614512383937836,-0.029800113290548,-0.001190185314044
665,9.68241375661455,0.555479645729065,-0.034293249249458,9.82306480407715,-9.43853665376082E-05,-0.000285197544144,-0.003667095676065,-9.67544174194336,61.0947189331055,0.001671180711128,-0.616613507270813,-0.029636189341545,-0.001251220470294
666,9.69241375639103,4.00485277175903,0.042969480156899,9.79495429992676,-7.84386356826872E-05,0.000187334357179,-0.003673176746815,-9.59177303314209,61.0937919616699,0.001670608529821,-0.618717789649963,-0.029745472595096,-0.001312255626544
667,9.70241375616752,0.575906276702881,-0.074045144021511,9.82572269439697,-3.21031657222193E-05,-0.00028512798599,-0.003523027058691,-9.50804901123047,61.0928535461426,0.001671638456173,-0.620736598968506,-0.029581546783447,-0.001312255859375
668,9.712413755944,3.9948399066925,0.043137367814779,9.79152965545654,-3.13112650474068E-05,0.000186415272765,-0.003519996069372,-9.42392539978027,61.0919189453125,0.001671028090641,-0.622753322124481,-0.02969766035676,-0.001342773321085
669,9.72241375572048,0.565904915332794,-0.074120216071606,9.8257303237915,7.95972573541803E-06,-0.000284096895484,-0.003345404751599,-9.33974456787109,61.0909767150879,0.001672019949183,-0.624670088291168,-0.029540566727519,-0.001342773321085
670,9.73241375549696,3.98570108413696,-0.036697875708342,9.79000854492188,8.56653514347272E-06,0.000185018972843,-0.003273147856817,-9.25516605377197,61.0900230407715,0.001671218778938,-0.626545548439026,-0.029636189341545,-0.00131225574296
671,9.74241375527345,0.585022389888763,0.006135131698102,9.82915687561035,3.88953922083601E-05,-0.000282528053503,-0.00308847730048,-9.17053127288818,61.0890693664551,0.001672363257967,-0.628315210342407,-0.029479095712304,-0.00131225574296
672,9.75241375504993,3.95525455474854,0.003217285731807,9.78964996337891,3.61571255780291E-05,0.000183759257197,-0.002996970899403,-9.08549976348877,61.0881156921387,0.001671676640399,-0.630032300949097,-0.02957471832633,-0.001281737932004
673,9.76241375482641,0.585009694099426,0.006179387681186,9.82572364807129,5.55868864466902E-05,-0.000282537890598,-0.002815834246576,-9.00041103363037,61.087158203125,0.00167259213049,-0.631645500659943,-0.029417622834444,-0.00125122058671
674,9.77241375460289,3.95568823814392,-0.036551330238581,9.79194164276123,5.20038265676703E-05,0.000182458126801,-0.002716924529523,-8.91492652893066,61.0861930847168,0.001671905512922,-0.633202373981476,-0.029520075768232,-0.001220703008585
675,9.78241375437938,0.584555923938751,0.046217888593674,9.82610511779785,6.78990472806618E-05,-0.000282042397885,-0.002540824003518,-8.82938480377197,61.0852317810059,0.001672859187238,-0.634658336639404,-0.029356151819229,-0.00119018543046
676,9.79241375415586,3.93568301200867,-0.036560956388712,9.79195594787598,6.09060771239456E-05,0.000180920149432,-0.002439483301714,-8.74344921112061,61.0842666625977,0.00167221063748,-0.636055767536163,-0.029479095712304,-0.00112915027421
677,9.80241375393234,0.585434317588806,-0.033734027296305,9.82610416412354,7.03606856404804E-05,-0.000280944048427,-0.002294493140653,-8.65745639801025,61.0832939147949,0.001673202496022,-0.63737016916275,-0.029301509261131,-0.001098632696085
678,9.81241375370882,3.93567419052124,-0.036374308168888,9.79195880889893,6.57042401144281E-05,0.000178889895324,-0.002188837854192,-8.57107067108154,61.0823135375977,0.00167259213049,-0.638624429702759,-0.029410792514682,-0.00106811511796
679,9.82241375348531,0.578114688396454,-0.273822396993637,9.82495975494385,-0.000382962898584,-0.000280131265754,-0.004686828702688,-8.48462772369385,61.0813064575195,0.001673507620581,-0.641309976577759,-0.029253698885441,-0.001281738048419
680,9.83241375326179,3.93611836433411,-0.07605841755867,9.79463291168213,-0.000371319416445,0.000177565598278,-0.005144789814949,-8.39779186248779,61.0802879333496,0.001673088059761,-0.644257605075836,-0.029349321499467,-0.00149536121171
681,9.84241375303827,0.574968159198761,0.006156633142382,9.82229614257813,-0.000294291006867,-0.000278895051451,-0.005256547126919,-8.31089878082275,61.0792655944824,0.001673927297816,-0.647269487380981,-0.029192226007581,-0.001647948985919
682,9.85241375281476,3.91157174110413,-0.115967258810997,9.79426860809326,-0.000275391474133,0.000176131317858,-0.005542817059904,-8.22361564636231,61.0782318115234,0.001673393184319,-0.650445222854614,-0.029287848621607,-0.00180053699296
683,9.86241375259124,0.584955453872681,0.006286610849202,9.82305431365967,-0.000196715423954,-0.000278144783806,-0.005513097159565,-8.13627338409424,61.0771942138672,0.001674194354564,-0.653604030609131,-0.029123924672604,-0.001922606839798
684,9.87241375236772,3.90111613273621,-0.075688526034355,9.79427623748779,-0.000187838988495,0.000174895030796,-0.005691973492503,-8.04854297637939,61.0761451721191,0.001673622056842,-0.656865358352661,-0.029226377606392,-0.002044677268714
685,9.8824137521442,0.595867455005646,-0.073559172451496,9.82533931732178,-0.000113577938464,-0.000277146900771,-0.005547884851694,-7.96075296401978,61.0750923156738,0.001674613915384,-0.660043895244598,-0.029069283977151,-0.002105712657794
686,9.89241375192069,3.88018846511841,0.00449196388945,9.79238414764404,-0.000100306155218,0.000173526350409,-0.005564325489104,-7.87257528305054,61.074031829834,0.001674041734077,-0.663232028484345,-0.029164906591177,-0.002136230235919
687,9.90241375169717,0.599934041500092,0.006547661498189,9.8249568939209,-3.76619245798793E-05,-0.000276119506452,-0.005360545124859,-7.78433799743652,61.0729713439941,0.001674995408393,-0.666303396224976,-0.029007811099291,-0.002166747814044
688,9.91241375147365,3.86611461639404,-0.075273171067238,9.79353904724121,-3.7901132600382E-05,0.00017212156672,-0.005351457279176,-7.69571495056152,61.0718994140625,0.001674499479122,-0.669369578361511,-0.029110264033079,-0.002197265625
689,9.92241375125013,0.605391919612885,-0.033328659832478,9.82304573059082,1.3761854461336E-05,-0.000274829391856,-0.005100377835333,-7.60703229904175,61.0708236694336,0.001675338717178,-0.672291934490204,-0.028953170403838,-0.002166747581214
690,9.93241375102662,3.85064387321472,-0.035058043897152,9.79355049133301,1.84563596121734E-05,0.000171064340975,-0.004985415376723,-7.5179648399353,61.0697402954102,0.001674728351645,-0.675148606300354,-0.029062453657389,-0.002166748046875
691,9.9424137508031,0.604914665222168,0.006732212379575,9.82495594024658,5.10752906848211E-05,-0.000273554353043,-0.004759495146573,-7.42883729934692,61.0686569213867,0.001675643841736,-0.677875399589539,-0.028905358165503,-0.002136230003089
692,9.95241375057958,3.84563660621643,-0.034746773540974,9.79279518127441,5.19265595357865E-05,0.000170686820638,-0.004606936592609,-7.33932590484619,61.0675621032715,0.001675033476204,-0.680515050888062,-0.029000980779529,-0.002105712424964
693,9.96241375035606,0.61038076877594,-0.033136080950499,9.82647800445557,8.55183388921432E-05,-0.000273705518339,-0.004330274648964,-7.24975395202637,61.0664672851563,0.001676101703197,-0.682995915412903,-0.028843887150288,-0.002044677268714
694,9.97241375013255,3.81515073776245,0.005234912037849,9.78938102722168,7.48204911360517E-05,0.000169135048054,-0.004200576338917,-7.15980100631714,61.0653648376465,0.001675300532952,-0.685402929782867,-0.028939509764314,-0.002014159923419
695,9.98241374990903,0.635371208190918,-0.032771229743958,9.82913875579834,0.00010193631897,-0.00027141571627,-0.003925756551325,-7.06978511810303,61.0642623901367,0.001676445011981,-0.687651872634888,-0.028775585815311,-0.001953124883585
696,9.99241374968551,3.79110312461853,-0.074747025966644,9.78863143920898,9.60602119448595E-05,0.000167955367942,-0.003747287904844,-6.97939014434814,61.0631484985352,0.001675643841736,-0.689799308776856,-0.028871208429337,-0.001892089610919
697,10.002413749462,0.643912851810455,0.087407357990742,9.82799243927002,0.000114430455142,-0.000270922231721,-0.003488530870527,-6.88893175125122,61.0620384216309,0.001676673884504,-0.691798150539398,-0.028714112937451,-0.001831054454669
698,10.0124137492385,3.77561640739441,-0.034653265029192,9.79208087921143,0.000106284183857,0.000165643796208,-0.003313599387184,-6.79809617996216,61.060920715332,0.001676101703197,-0.693696677684784,-0.028809735551477,-0.001770019414835
699,10.022413749015,0.640838801860809,-0.072579517960548,9.82493782043457,0.000114092676085,-0.000269168085651,-0.003101837588474,-6.70719718933106,61.0597991943359,0.001677055377513,-0.695473849773407,-0.028659472241998,-0.001708984142169
700,10.0324137487914,3.77560877799988,-0.03438451513648,9.79322719573975,-3.44398395100143E-05,0.000164638797287,-0.003749981755391,-6.61592149734497,61.0586662292481,0.001676521264017,-0.697622358798981,-0.028748264536262,-0.001708984258585
701,10.0424137485679,0.631322681903839,-0.112659431993961,9.82379913330078,-7.93982835602947E-05,-0.000268164090812,-0.004064558073878,-6.524582862854,61.0575218200684,0.001677398686297,-0.69995105266571,-0.028598001226783,-0.001770019182004
702,10.0524137483444,3.7656033039093,-0.034206099808216,9.79361724853516,-0.000136427013786,0.000163605218404,-0.004472136963159,-6.43286848068237,61.0563697814941,0.001676826388575,-0.702513575553894,-0.028693623840809,-0.0018310546875
703,10.0624137481209,0.641323983669281,-0.112505428493023,9.8237943649292,-0.000129496620502,-0.00026752485428,-0.004642132204026,-6.3410906791687,61.0552101135254,0.00167766562663,-0.705173373222351,-0.02855701930821,-0.00192260730546
704,10.0724137478974,3.75010347366333,0.005937034264207,9.79477405548096,-0.000143609038787,0.000162570169778,-0.004868376068771,-6.24893808364868,61.0540351867676,0.001677169813775,-0.707962691783905,-0.028632150962949,-0.001983642578125
705,10.0824137476739,0.641324639320374,-0.112464211881161,9.82417488098145,-0.000109180924483,-0.000266526301857,-0.004897680599242,-6.15672159194946,61.0528602600098,0.001678123488091,-0.710769057273865,-0.028488717973232,-0.002044677268714
706,10.0924137474503,3.7395966053009,0.046158734709025,9.79364109039307,-0.00010417294834,0.000160805939231,-0.004986306652427,-6.06413269042969,61.0516777038574,0.00167762755882,-0.713625729084015,-0.028584340587258,-0.002105712657794
707,10.1024137472268,0.641323745250702,-0.112417057156563,9.82150650024414,-5.75478516111616E-05,-0.000265164591838,-0.004874315578491,-5.97147941589356,61.0504875183105,0.001678314176388,-0.716418921947479,-0.028427245095372,-0.002136230235919
708,10.1124137470033,3.72058892250061,-0.033732540905476,9.79708385467529,-5.06032774865162E-05,0.000159780625836,-0.004872464109212,-5.87845516204834,61.0492858886719,0.001677894499153,-0.71921044588089,-0.028522867709398,-0.002166747814044
709,10.1224137467798,0.660314619541168,-0.032115742564201,9.82188129425049,-7.93341678217985E-06,-0.000263443682343,-0.00470040505752,-5.78536462783814,61.0480842590332,0.001678695669398,-0.721903502941132,-0.028365774080157,-0.002166747814044
710,10.1324137465563,3.69957137107849,0.046354956924915,9.79633903503418,-3.12100382870994E-06,0.000159123053891,-0.004632905125618,-5.69190549850464,61.0468788146973,0.001678314176388,-0.724557757377625,-0.028461396694183,-0.002166748046875
711,10.1424137463328,0.666321575641632,-0.111986443400383,9.82149314880371,3.27268171531614E-05,-0.000262346060481,-0.004428423009813,-5.59838008880615,61.0456619262695,0.001679115230218,-0.727095127105713,-0.028304303064942,-0.002166747814044
712,10.1524137461092,3.68506503105164,0.006497168913484,9.79482650756836,2.93600896839052E-05,0.000157770598889,-0.004359655547887,-5.50448656082153,61.0444412231445,0.001678581233136,-0.729592978954315,-0.028393095359206,-0.002136230235919
713,10.1624137458857,0.670809984207153,-0.071859307587147,9.82339859008789,6.16062170593068E-05,-0.000260886736214,-0.004127430729568,-5.41052675247192,61.0432167053223,0.001679420471191,-0.731957912445068,-0.028242830187082,-0.002105712424964
714,10.1724137456622,3.67005515098572,0.006613853853196,9.79445743560791,6.19358688709326E-05,0.000156036912813,-0.003982000052929,-5.3161997795105,61.0419807434082,0.001678886357695,-0.73423957824707,-0.028331622481346,-0.002075194846839
715,10.1824137454387,0.674776613712311,0.008265729993582,9.8237829208374,7.97993197920732E-05,-0.000260189844994,-0.003780632512644,-5.22180652618408,61.0407524108887,0.001679763779975,-0.736405611038208,-0.028181359171867,-0.00201416015625
716,10.1924137452152,3.65056109428406,-0.03335378319025,9.79408550262451,8.00452471594326E-05,0.000155376910698,-0.003617473412305,-5.12704801559448,61.0395088195801,0.001679229666479,-0.738478243350983,-0.028270151466131,-0.001983642578125
717,10.2024137449916,0.685285091400147,-0.031539112329483,9.82377910614014,0.000100547731563,-0.000259085645666,-0.003382529597729,-5.03222227096558,61.0382652282715,0.00168010708876,-0.740415990352631,-0.028140377253294,-0.00192260730546
718,10.2124137447681,3.64400053024292,0.086820438504219,9.79409408569336,0.000228097269428,0.000153977292939,-0.00244619557634,-4.9370322227478,61.0370254516602,0.001679572975263,-0.741817772388458,-0.028215510770679,-0.001770019182004
719,10.2224137445446,0.679757654666901,0.008471079170704,9.82378482818604,0.00022159414948,-0.000257613166468,-0.002154263900593,-4.84177494049072,61.0357856750488,0.001680450397544,-0.743052244186401,-0.028078906238079,-0.001647948985919
720,10.2324137443211,3.63106560707092,-0.073171839118004,9.7937183380127,0.000202374416403,0.000152642664034,-0.001892954926007,-4.74615478515625,61.0345344543457,0.001679878216237,-0.744136691093445,-0.028154037892819,-0.001525878673419
721,10.2424137440976,0.689225018024445,0.048658359795809,9.82454395294189,0.00019145332044,-0.000256178085692,-0.001665078103542,-4.65046644210815,61.0332832336426,0.001680793706328,-0.745090961456299,-0.028010604903102,-0.001434325939044
722,10.2524137438741,3.62001895904541,0.006835862062871,9.79373073577881,0.000173384134541,0.000151624437422,-0.001461301348172,-4.55441617965698,61.0320358276367,0.001680259709246,-0.745928049087524,-0.028106227517128,-0.001342773321085
723,10.2624137436505,0.685255825519562,-0.031344689428806,9.82416152954102,0.000164054406923,-0.000254697661148,-0.001267168321647,-4.45829820632935,61.0307807922363,0.001681175199337,-0.746654152870178,-0.027949132025242,-0.001220702892169
724,10.272413743427,3.6055314540863,-0.033239457756281,9.79412078857422,0.000148833176354,0.000149890969624,-0.001101499074139,-4.36182069778442,61.0295143127441,0.001680679270066,-0.747285008430481,-0.028044754639268,-0.001159667852335
725,10.2824137432035,0.694200932979584,0.048819150775671,9.82416152954102,0.000137780996738,-0.000253591453657,-0.000952291185968,-4.2652735710144,61.0282554626465,0.001681632944383,-0.747830867767334,-0.027887661010027,-0.001068115234375
726,10.29241374298,3.58500027656555,0.006585392635316,9.79299068450928,0.000128629646497,0.000149241430336,-0.000806255091447,-4.16836833953857,61.0269889831543,0.001681060763076,-0.748293101787567,-0.027983283624053,-0.00100707996171
727,10.3024137427565,0.700233221054077,-0.03107225894928,9.82377624511719,0.000120873904962,-0.000252447091043,-0.000682073179632,-4.07139396667481,61.0257225036621,0.001681900001131,-0.748683393001556,-0.02781935967505,-0.000915527401958
728,10.312413742533,3.57499027252197,0.006525401491672,9.79452705383301,0.000111878689495,0.000147502942127,-0.00056603748817,-3.97406244277954,61.0244522094727,0.001681365887634,-0.749007940292358,-0.027914982289076,-0.000854492303915
729,10.3224137423094,0.707198917865753,0.009050563909113,9.8230094909668,0.000103610713268,-0.000251333927736,-0.000471797393402,-3.87666058540344,61.0231781005859,0.001682167057879,-0.749278664588928,-0.02775788679719,-0.00079345703125
730,10.3324137420859,3.55748152732849,0.006342547945678,9.79530334472656,9.52278496697545E-05,0.000146119869896,-0.000380169454729,-3.77890372276306,61.0219039916992,0.001681671128608,-0.749496221542358,-0.027853509411216,-0.000762939511333
731,10.3424137418624,0.710212409496307,-0.030892783775926,9.82491683959961,8.65503388922662E-05,-0.000249471981078,-0.000310333241941,-3.68107628822327,61.020622253418,0.00168270105496,-0.749673783779144,-0.027696415781975,-0.00070190441329
732,10.3524137416389,3.54246997833252,0.006186665501446,9.79073429107666,8.04855735623278E-05,0.000145476762555,-0.000238718464971,-3.58289480209351,61.0193405151367,0.001681976253167,-0.749810576438904,-0.027792038396001,-0.000640869198833
733,10.3624137414154,0.719682395458221,0.009253336116672,9.8275842666626,7.59982576710172E-05,-0.00024894301896,-0.000186424003914,-3.48464226722717,61.0180549621582,0.001683044363745,-0.749917030334473,-0.027655433863402,-0.000610351504292
734,10.3724137411918,3.52692532539368,0.045998692512512,9.79227828979492,6.88645013724454E-05,0.000144496021676,-0.000132003115141,-3.38603711128235,61.0167694091797,0.001682510366663,-0.749917030334473,-0.027655433863402,-0.000610351504292
735,10.3824137409683,0.715193808078766,-0.030791290104389,9.82339000701904,6.4094623667188E-05,-0.000247035262873,-9.92668137769215E-05,-3.28736114501953,61.0154838562012,0.001683349604718,-0.750049769878387,-0.027593962848187,-0.000518798828125
736,10.3924137407448,3.52296328544617,-0.034036125987768,9.79495429992676,5.90229137742426E-05,0.00014322300558,-5.70619449717924E-05,-3.18833327293396,61.0141868591309,0.001682853675447,-0.750049769878387,-0.027593962848187,-0.000518798828125
737,10.4024137405213,0.72278094291687,0.729446768760681,9.8226203918457,0.00120788521599,-0.00024658019538,0.006675238721073,-3.08923292160034,61.0129623413086,0.001683654729277,-0.746258080005646,-0.027532491832972,0.000190613747691
738,10.4124137402978,3.49537348747253,0.165341094136238,9.79610824584961,0.001147149596363,0.000140762072988,0.008039880543947,-2.98978328704834,61.0117530822754,0.001683235168457,-0.741651475429535,-0.027600793167949,0.000845666392706
739,10.4224137400743,0.728620946407318,0.089555978775025,9.82185840606689,0.000999755691737,-0.000245766888838,0.008893685415387,-2.89026093482971,61.0105438232422,0.001684036222287,-0.736555933952331,-0.027471018955112,0.001416034880094
740,10.4324137398507,3.49039649963379,0.164811193943024,9.79572772979736,0.000906810979359,0.000138616320328,0.00978472083807,-2.79039001464844,61.0093536376953,0.001683578477241,-0.730949401855469,-0.027552980929613,0.001932907383889
741,10.4424137396272,0.728627681732178,0.089573219418526,9.82071304321289,0.000751692859922,-0.000244298018515,0.010200555436313,-2.69044637680054,61.008171081543,0.001684226910584,-0.725105106830597,-0.027409547939897,0.002360793529078
742,10.4524137394037,3.4734251499176,0.124004825949669,9.79917240142822,0.000659359677229,0.000137748022098,0.010665503330529,-2.59015583992004,61.0069961547852,0.001683959970251,-0.718994379043579,-0.027491509914398,0.002735650166869
743,10.4624137391802,0.744132339954376,0.049721397459507,9.81994438171387,0.000500562542584,-0.000242890135269,0.010663044638932,-2.48979139328003,61.0058250427246,0.001684722839855,-0.712884545326233,-0.027348075062037,0.003019528230652
744,10.4724137389567,3.45094227790833,0.123071648180485,9.79537200927734,0.000432843051385,0.000136702103191,0.010840549133718,-2.38908219337463,61.0046577453613,0.001684188842773,-0.706673324108124,-0.027436869218946,0.003264559200034
745,10.4824137387332,0.747121512889862,0.00966746173799,9.822998046875,0.000301450170809,-0.000241621644818,0.010632568970323,-2.28829860687256,61.0034942626953,0.001684989896603,-0.700581669807434,-0.027279773727059,0.003434370039031
746,10.4924137385096,3.44345831871033,0.12230222672224,9.79575920104981,0.000252110970905,0.000135777198011,0.010600830428302,-2.18717122077942,61.0023384094238,0.001684532151558,-0.694507479667664,-0.027375396341086,0.003575920592994
