frame,timestamp,acc x (m/s^2),acc y (m/s^2),acc z (m/s^2),gyro x (rad/s),gyro y (rad/s),gyro z (rad/s),x (Ground truth),y (Ground truth),z (Ground truth),yaw (Ground Truth),pitch (Ground Truth),roll (Ground Truth)
1057,34.74127273881459,0.0,-0.0,0.010000228881835938,-0.0,-0.0,-0.0,-94.67617797851562,-24.420961380004883,0.09412002563476562,-0.1592101752758026,-0.0,0.0
1058,34.75127273859107,0.0,-0.0,0.01007843017578125,-0.0,-0.0,-0.0,-94.67617797851562,-24.420961380004883,0.0902000442147255,-0.1592101752758026,-0.0,0.0
1059,34.76127273836755,0.0,-0.0,0.009688377380371094,-0.0,-0.0,-0.0,-94.67617797851562,-24.420961380004883,0.0853000208735466,-0.1592101752758026,-0.0,0.0
1060,34.771272738144035,0.0,-0.0,0.01007843017578125,-0.0,-0.0,-0.0,-94.67617797851562,-24.420961380004883,0.07942001521587372,-0.1592101752758026,-0.0,0.0
1061,34.78127273792052,0.0,-0.0,3.6186723709106445,7.5337698035582434e-06,3.885420483129565e-06,1.5783534012105485e-14,-94.67617797851562,-24.420961380004883,0.07292087376117706,-0.1592101752758026,-0.0,0.0
1062,34.791272737697,0.0,-0.0,15.62289047241211,4.382646238809684e-06,2.654831178006134e-06,2.3809693106002783e-10,-94.67617797851562,-24.420961380004883,0.06700301915407181,-0.1592101752758026,-0.0,0.0
1063,34.80127273747348,0.0,-0.0,14.684765815734863,3.29502040585794e-06,2.0807133296329994e-06,2.8366975435289987e-11,-94.67617797851562,-24.420961380004883,0.06157264485955238,-0.1592101752758026,-0.0,0.0
1064,34.811272737249965,-5.557476470130496e-05,0.019999923184514046,14.286523818969727,3.5083517104794737e-06,2.179416469516582e-06,-5.641376255027808e-11,-94.67617797851562,-24.42095947265625,0.05658992752432823,-0.1592101752758026,-0.0,0.0
1065,34.82127273702645,5.557476470130496e-05,-0.019999923184514046,13.921133041381836,1.4713452856085496e-06,1.910353148559807e-06,-5.415176640433117e-11,-94.67617797851562,-24.42095947265625,0.05201831832528114,-0.1592101752758026,-0.0,0.0
1066,34.83127273680293,0.0,-0.0,13.585039138793945,1.3596035159935127e-06,1.261455849999038e-06,-9.185446847581602e-11,-94.67617797851562,-24.42095947265625,0.04782421141862869,-0.1592101752758026,-0.0,0.0
1067,34.84127273657941,0.0,-0.0,13.276406288146973,2.2755223199055763e-06,9.443608064430009e-07,-1.0348166767926159e-11,-94.67617797851562,-24.42095947265625,0.04397674277424812,-0.1592101752758026,-0.0,0.0
1068,34.851272736355895,0.0,-0.0,12.992578506469727,5.895252002119378e-07,2.643926109158201e-07,-1.3895529171747967e-10,-94.67617797851562,-24.42095947265625,0.04044754058122635,-0.1592101752758026,-0.0,0.0
1069,34.86127273613238,0.0,-0.0,12.731719017028809,8.070955459515972e-07,9.781274457054678e-07,1.3315004654401719e-10,-94.67617797851562,-24.42095947265625,0.03721050173044205,-0.1592101752758026,-0.0,0.0
1070,34.87127273590886,0.0,-0.0,12.491680145263672,-7.045741057254418e-08,6.368272238432837e-07,2.674527266322002e-11,-94.67617797851562,-24.42095947265625,0.03424163907766342,-0.1592101752758026,-0.0,0.0
1071,34.88127273568534,0.0,-0.0,12.272050857543945,-5.189282603623724e-08,-6.4903545649031e-08,-6.068399255321211e-11,-94.67617797851562,-24.42095947265625,0.03151897341012955,-0.1592101752758026,-0.0,0.0
1072,34.891272735461826,0.0,-0.0,12.06943416595459,1.7427645389034296e-06,6.29039675459353e-07,7.597725920627241e-11,-94.67617797851562,-24.42095947265625,0.029022254049777985,-0.1592101752758026,-0.0,0.0
1073,34.90127273523831,0.0,-0.0,11.883652687072754,-4.373623241349378e-08,-7.150737246774952e-08,-3.231082068566593e-12,-94.67617797851562,-24.42095947265625,0.026732901111245155,-0.1592101752758026,-0.0,0.0
1074,34.91127273501479,0.0,-0.0,11.712793350219727,-2.1505568881252657e-08,-8.099295456531763e-08,-3.084682509424397e-11,-94.67617797851562,-24.42095947265625,0.024633826687932014,-0.1592101752758026,-0.0,0.0
1075,34.92127273479127,0.0,-0.0,11.555585861206055,-6.21513507326199e-08,-9.03884682657008e-08,-5.4971339980003364e-12,-94.67617797851562,-24.42095947265625,0.022709311917424202,-0.1592101752758026,-0.0,0.0
1076,34.931272734567756,0.0,-0.0,11.412187576293945,7.863091582294146e-07,2.481674243881571e-07,2.4501083453754013e-11,-94.67617797851562,-24.42095947265625,0.02094501443207264,-0.1592101752758026,-0.0,0.0
1077,34.94127273434424,0.0,-0.0,11.27978515625,-1.3669867371390865e-07,5.831211637996603e-07,3.948522064867177e-12,-94.67617797851562,-24.42095947265625,0.019327696412801743,-0.1592101752758026,-0.0,0.0
1078,34.95127273412072,0.0,-0.0,11.158124923706055,6.380822981100209e-08,-1.3231850459760608e-07,-6.631854787553237e-11,-94.67617797851562,-24.42095947265625,0.017845191061496735,-0.1592101752758026,-0.0,0.0
1079,34.961272733897204,0.0,-0.0,11.047109603881836,2.331020532153616e-08,-1.5025433697246626e-07,4.7241432987732423e-11,-94.67617797851562,-24.42095947265625,0.0164863970130682,-0.1592101752758026,-0.0,0.0
1080,34.971272733673686,0.0,-0.0,10.944111824035645,6.699414711874851e-07,1.9030861153623846e-07,7.7422651623138e-12,-94.67617797851562,-24.42095947265625,0.01524101197719574,-0.1592101752758026,-0.0,0.0
1081,34.98127273345017,0.0,-0.0,10.850263595581055,-2.3693063155860727e-07,-1.7690732079245208e-07,-9.139888845766109e-11,-94.67617797851562,-24.42095947265625,0.014099654741585255,-0.1592101752758026,-0.0,0.0
1082,34.99127273322665,0.0,-0.0,10.764433860778809,-2.8744577207362454e-07,-1.9904265968762047e-07,7.706023319453692e-12,-94.67617797851562,-24.42095947265625,0.013053741306066513,-0.1592101752758026,-0.0,0.0
1083,35.001272733003134,0.0,-0.0,10.684717178344727,-3.192539566043706e-07,-2.1833579921803903e-07,-1.1023279511412909e-11,-94.67617797851562,-24.42095947265625,0.012095298618078232,-0.1592101752758026,-0.0,0.0
1084,35.01127273277962,0.0,-0.0,10.612607955932617,-3.4580037322484714e-07,-2.3197679865916143e-07,-9.073609918974768e-12,-94.67617797851562,-24.42095947265625,0.011217117309570312,-0.1592101752758026,-0.0,0.0
1085,35.0212727325561,0.0,-0.0,10.545478820800781,-3.923069868960738e-07,4.551397694285697e-07,1.025383111752376e-10,-94.67617797851562,-24.42095947265625,0.010412482544779778,-0.1592101752758026,-0.0,0.0
1086,35.03127273233258,0.0,-0.0,10.484434127807617,-4.1657989413579344e-07,-2.5730963670866913e-07,-2.326647208228394e-11,-94.67617797851562,-24.42095947265625,0.009675292298197746,-0.1592101752758026,-0.0,0.0
1087,35.041272732109064,0.0,-0.0,10.428369522094727,1.3580914810518152e-06,4.3617950495900004e-07,2.84696433094922e-11,-94.67617797851562,-24.42095947265625,0.008999939076602459,-0.1592101752758026,-0.0,0.0
1088,35.05127273188555,0.0,-0.0,10.376855850219727,-1.0901324003498303e-06,7.55776241589956e-08,-8.764650116788175e-11,-94.67617797851562,-24.42095947265625,0.008381270803511143,-0.1592101752758026,-0.0,0.0
1089,35.06127273166203,0.0,-0.0,10.32956600189209,-4.4273312482800975e-07,-2.97349856737128e-07,-3.2032331648279566e-11,-94.67617797851562,-24.42095947265625,0.00781456008553505,-0.1592101752758026,-0.0,0.0
1090,35.07127273143851,0.0,-0.0,10.286455154418945,3.9886990066406725e-07,3.505299517314597e-08,7.5667000443147e-11,-94.67617797851562,-24.42095947265625,0.007295493967831135,-0.1592101752758026,-0.0,0.0
1091,35.081272731214995,0.0,-0.0,10.2464017868042,-5.200010946282418e-07,-3.2180543030335684e-07,3.1211699891287026e-11,-94.67617797851562,-24.42095947265625,0.0068200682289898396,-0.1592101752758026,-0.0,0.0
1092,35.09127273099148,0.0,-0.0,10.210161209106445,3.8679104363836814e-07,2.2339085248290758e-08,2.808287283273536e-11,-94.67617797851562,-24.42095947265625,0.006384658627212048,-0.1592101752758026,-0.0,0.0
1093,35.10127273076796,0.0,-0.0,10.176596641540527,3.909974282123585e-07,1.3887340166718332e-08,4.928235597390085e-11,-94.67617797851562,-24.42095947265625,0.005985908210277557,-0.1592101752758026,-0.0,0.0
1094,35.11127273054444,0.0,-0.0,10.146069526672363,4.1485799329166184e-07,4.4603827298317356e-09,-4.7761739008223e-11,-94.67617797851562,-24.42095947265625,0.005620765499770641,-0.1592101752758026,-0.0,0.0
1095,35.121272730320925,0.0,-0.0,10.117847442626953,-5.018232513975818e-07,3.384387810001499e-07,2.216477001937278e-12,-94.67617797851562,-24.42095947265625,0.005286407191306353,-0.1592101752758026,-0.0,0.0
1096,35.13127273009741,0.0,-0.0,10.091909408569336,-5.332613568498346e-07,-3.6697804262075806e-07,-2.8217567171751057e-11,-94.67617797851562,-24.42095947265625,0.004980239551514387,-0.1592101752758026,-0.0,0.0
1097,35.14127272987389,0.0,-0.0,10.068257331848145,3.555121566023445e-07,-3.462411157784118e-08,5.0955892283433e-11,-94.67617797851562,-24.42095947265625,0.004699897486716509,-0.1592101752758026,-0.0,0.0
1098,35.15127272965037,0.0,-0.0,10.046890258789062,-5.47375634596392e-07,3.0973080811236287e-07,3.58034574210464e-11,-94.67617797851562,-24.42095947265625,0.004443245008587837,-0.1592101752758026,-0.0,0.0
1099,35.161272729426855,0.0,-0.0,10.0266752243042,3.504100334339455e-07,-5.434267791315506e-08,-6.10713146720343e-11,-94.67617797851562,-24.42095947265625,0.004208259284496307,-0.1592101752758026,-0.0,0.0
1100,35.17127272920334,0.0,-0.0,10.008745193481445,1.219530190610385e-06,2.874644167150109e-07,4.4081752137437036e-11,-94.67617797851562,-24.42095947265625,0.0039931489154696465,-0.1592101752758026,-0.0,0.0
1101,35.18127272897982,0.0,-0.0,9.991960525512695,-5.504251703314367e-07,2.6973467015523056e-07,-5.787204049312322e-11,-94.67617797851562,-24.42095947265625,0.003796234028413892,-0.1592101752758026,-0.0,0.0
1102,35.1912727287563,0.0,-0.0,9.976704597473145,-5.744645363847667e-07,-4.5455013264472655e-07,-2.7404273295061898e-11,-94.67617797851562,-24.42095947265625,0.0036159895826131105,-0.1592101752758026,-0.0,0.0
1103,35.201272728532786,0.0,-0.0,9.96258544921875,-5.971352265987662e-07,-4.6496072059198923e-07,7.040845684258557e-11,-94.67617797851562,-24.42095947265625,0.0034510039258748293,-0.1592101752758026,-0.0,0.0
1104,35.21127272830927,0.0,-0.0,9.950002670288086,1.1950706948482548e-06,2.201018105552066e-07,6.851352818415535e-11,-94.67617797851562,-24.42095947265625,0.0033000181429088116,-0.1592101752758026,-0.0,0.0
1105,35.22127272808575,0.0,-0.0,9.937790870666504,1.205657895297918e-06,2.1450001952416642e-07,-6.20386519933902e-11,-94.67617797851562,-24.42095947265625,0.003161811735481024,-0.1592101752758026,-0.0,0.0
1106,35.23127272786223,0.0,-0.0,9.92749309539795,-5.649545187225158e-07,2.0992952443066315e-07,-5.391159740852913e-11,-94.67617797851562,-24.42095947265625,0.0030353546608239412,-0.1592101752758026,-0.0,0.0
1107,35.241272727638716,0.0,-0.0,9.917195320129395,-5.856786629010458e-07,-5.11526707214216e-07,-6.850832401372742e-11,-94.67617797851562,-24.42095947265625,0.0029196166433393955,-0.1592101752758026,-0.0,0.0
1108,35.2512727274152,0.0,-0.0,9.908418655395508,-6.179708407216822e-07,1.811735756973576e-07,4.459814462176581e-11,-94.67617797851562,-24.42095947265625,0.0028137206099927425,-0.1592101752758026,-0.0,0.0
1109,35.26127272719168,0.0,-0.0,9.899646759033203,1.1623320688158856e-06,1.7543761998695118e-07,-2.8230473514412324e-11,-94.67617797851562,-24.42095947265625,0.0027167892549186945,-0.1592101752758026,-0.0,0.0
1110,35.271272726968164,0.0,-0.0,9.8923978805542,-6.236294893824379e-07,1.7464243740050733e-07,-4.637795703033021e-11,-94.67617797851562,-24.42095947265625,0.0026280975434929132,-0.1592101752758026,-0.0,0.0
1111,35.281272726744646,0.0,-0.0,9.885530471801758,1.1252088825131068e-06,1.6651391376854008e-07,3.5454583713345755e-11,-94.67617797851562,-24.42095947265625,0.0025469588581472635,-0.1592101752758026,-0.0,0.0
1112,35.29127272652113,0.0,-0.0,9.879045486450195,-1.33347805331141e-06,-1.9131464057409175e-07,-2.2561910673069008e-11,-94.67617797851562,-24.42095947265625,0.0024727247655391693,-0.1592101752758026,-0.0,0.0
1113,35.30127272629761,0.0,-0.0,9.87332534790039,2.076265985806458e-07,-2.1441113062792283e-07,-6.18081280601146e-12,-94.67617797851562,-24.42095947265625,0.002404823200777173,-0.1592101752758026,-0.0,0.0
1114,35.311272726074094,0.0,-0.0,9.8679838180542,-7.198669322860951e-07,1.209801183676973e-07,5.738287622847338e-11,-94.67617797851562,-24.42095947265625,0.0023427200503647327,-0.1592101752758026,-0.0,0.0
1115,35.32127272585058,0.0,-0.0,9.86264419555664,1.0320216006221017e-06,1.1381790443465434e-07,7.41091632505686e-11,-94.67617797851562,-24.42095947265625,0.0022858809679746628,-0.1592101752758026,-0.0,0.0
1116,35.33127272562706,0.0,-0.0,9.858445167541504,-7.378397413049242e-07,1.0830082430857146e-07,-1.6210019437856715e-11,-94.67617797851562,-24.42095947265625,0.0022338866256177425,-0.1592101752758026,-0.0,0.0
1117,35.34127272540354,0.0,-0.0,9.854631423950195,-7.253175340338203e-07,-6.08463778917212e-07,-9.175671333849778e-11,-94.67617797851562,-24.42095947265625,0.002186355646699667,-0.1592101752758026,-0.0,0.0
1118,35.351272725180024,0.0,-0.0,9.850820541381836,-7.436009923367237e-07,-6.348824399537989e-07,-1.0076148249105188e-11,-94.67617797851562,-24.42095947265625,0.0021429061889648438,-0.1592101752758026,-0.0,0.0
1119,35.36127272495651,0.0,-0.0,9.84661865234375,-1.3521824371309776e-07,-2.9854422223252186e-07,1.1712453229506536e-10,-94.67617797851562,-24.42095947265625,0.0021031189244240522,-0.1592101752758026,-0.0,0.0
1120,35.37127272473299,0.0,-0.0,9.843950271606445,9.673389200770544e-08,-3.0289663754956564e-07,-8.919226034825867e-13,-94.67617797851562,-24.42095947265625,0.002066726563498378,-0.1592101752758026,-0.0,0.0
1121,35.38127272450947,0.0,-0.0,9.841283798217773,9.977312629416701e-07,4.97570482593801e-08,2.4459129166487514e-11,-94.67617797851562,-24.42095947265625,0.0020334625151008368,-0.1592101752758026,-0.0,0.0
1122,35.391272724285955,0.0,-0.0,9.838228225708008,1.1866642779523318e-07,3.9786996808288677e-07,-8.948397578478762e-13,-94.67617797851562,-24.42095947265625,0.0020030213054269552,-0.1592101752758026,-0.0,0.0
1123,35.40127272406244,0.0,-0.0,9.836322784423828,-7.781345061630418e-07,-6.479712624241074e-07,-3.353406441419793e-11,-94.67617797851562,-24.42095947265625,0.001975212013348937,-0.1592101752758026,-0.0,0.0
1124,35.41127272383892,0.0,-0.0,9.833650588989258,1.2257036985374725e-07,-3.0905840731065837e-07,3.098545378610318e-11,-94.67617797851562,-24.42095947265625,0.0019497680477797985,-0.1592101752758026,-0.0,0.0
1125,35.4212727236154,0.0,-0.0,9.831745147705078,-1.1478899608619031e-07,-2.9711554816458374e-07,-3.1664410676812693e-12,-94.67617797851562,-24.42095947265625,0.0019264983711764216,-0.1592101752758026,-0.0,0.0
1126,35.431272723391885,0.0,-0.0,9.830217361450195,1.1462340410162142e-07,4.1997930111392634e-07,1.4345025167727954e-11,-94.67617797851562,-24.42095947265625,0.0019052504794672132,-0.1592101752758026,-0.0,0.0
1127,35.44127272316837,0.0,-0.0,9.82793140411377,1.1032370395014368e-07,4.4405828703020234e-07,-6.058424595334344e-12,-94.67617797851562,-24.42095947265625,0.0018857955001294613,-0.1592101752758026,-0.0,0.0
1128,35.45127272294485,0.0,-0.0,9.8267822265625,1.0710266451496864e-07,-2.5951175075533683e-07,-5.100625477538756e-11,-94.67617797851562,-24.42095947265625,0.001868019113317132,-0.1592101752758026,-0.0,0.0
1129,35.46127272272133,0.0,-0.0,9.98776626586914,-0.0,-0.0,-0.0,-94.67617797851562,-24.42095947265625,0.001868019113317132,-0.1592101752758026,-0.0,0.0
1130,35.471272722497815,0.0,-0.0,9.8100004196167,-0.0,-0.0,-0.0,-94.67617797851562,-24.42095947265625,0.001868019113317132,-0.1592101752758026,-0.0,0.0
1131,35.4812727222743,0.0,-0.0,9.8100004196167,-0.0,-0.0,-0.0,-94.67617797851562,-24.42095947265625,0.001868019113317132,-0.1592101752758026,-0.0,0.0
1132,35.49127272205078,0.0,-0.0,9.8100004196167,-0.0,-0.0,-0.0,-94.67617797851562,-24.42095947265625,0.001868019113317132,-0.1592101752758026,-0.0,0.0
1133,35.50127272182726,0.0,-0.0,9.8100004196167,-0.0,-0.0,-0.0,-94.67617797851562,-24.42095947265625,0.001868019113317132,-0.1592101752758026,-0.0,0.0
1134,35.511272721603746,0.0,-0.0,9.8100004196167,-0.0,-0.0,-0.0,-94.67617797851562,-24.42095947265625,0.001868019113317132,-0.1592101752758026,-0.0,0.0
1135,35.52127272138023,0.0,-0.0,9.8100004196167,-0.0,-0.0,-0.0,-94.67617797851562,-24.42095947265625,0.001868019113317132,-0.1592101752758026,-0.0,0.0
1136,35.53127272115671,0.0,-0.0,9.8100004196167,-0.0,-0.0,-0.0,-94.67617797851562,-24.42095947265625,0.001868019113317132,-0.1592101752758026,-0.0,0.0
1137,35.54127272093319,0.0,-0.0,9.8100004196167,-0.0,-0.0,-0.0,-94.67617797851562,-24.42095947265625,0.001868019113317132,-0.1592101752758026,-0.0,0.0
1138,35.551272720709676,0.0,-0.0,9.8100004196167,-0.0,-0.0,-0.0,-94.67617797851562,-24.42095947265625,0.001868019113317132,-0.1592101752758026,-0.0,0.0
1139,35.56127272048616,0.0,-0.0,9.8100004196167,-0.0,-0.0,-0.0,-94.67617797851562,-24.42095947265625,0.001868019113317132,-0.1592101752758026,-0.0,0.0
1140,35.57127272026264,0.0,-0.0,9.8100004196167,-0.0,-0.0,-0.0,-94.67617797851562,-24.42095947265625,0.001868019113317132,-0.1592101752758026,-0.0,0.0
1141,35.581272720039124,0.0,-0.0,9.8100004196167,-0.0,-0.0,-0.0,-94.67617797851562,-24.42095947265625,0.001868019113317132,-0.1592101752758026,-0.0,0.0
1142,35.591272719815606,0.0,-0.0,9.8100004196167,-0.0,-0.0,-0.0,-94.67617797851562,-24.42095947265625,0.001868019113317132,-0.1592101752758026,-0.0,0.0
1143,35.60127271959209,0.0,-0.0,9.8100004196167,-0.0,-0.0,-0.0,-94.67617797851562,-24.42095947265625,0.001868019113317132,-0.1592101752758026,-0.0,0.0
1144,35.61127271936857,0.0,-0.0,9.8100004196167,-0.0,-0.0,-0.0,-94.67617797851562,-24.42095947265625,0.001868019113317132,-0.1592101752758026,-0.0,0.0
1145,35.621272719145054,0.0,-0.0,9.8100004196167,-0.0,-0.0,-0.0,-94.67617797851562,-24.42095947265625,0.001868019113317132,-0.1592101752758026,-0.0,0.0
1146,35.63127271892154,0.0,-0.0,9.8100004196167,-0.0,-0.0,-0.0,-94.67617797851562,-24.42095947265625,0.001868019113317132,-0.1592101752758026,-0.0,0.0
1147,35.64127271869802,0.0,-0.0,9.8100004196167,-0.0,-0.0,-0.0,-94.67617797851562,-24.42095947265625,0.001868019113317132,-0.1592101752758026,-0.0,0.0
1148,35.6512727184745,0.0,-0.0,9.8100004196167,-0.0,-0.0,-0.0,-94.67617797851562,-24.42095947265625,0.001868019113317132,-0.1592101752758026,-0.0,0.0
1149,35.661272718250984,0.0,-0.0,9.8100004196167,-0.0,-0.0,-0.0,-94.67617797851562,-24.42095947265625,0.001868019113317132,-0.1592101752758026,-0.0,0.0
1150,35.67127271802747,0.0,-0.0,9.8100004196167,-0.0,-0.0,-0.0,-94.67617797851562,-24.42095947265625,0.001868019113317132,-0.1592101752758026,-0.0,0.0
1151,35.68127271780395,0.0,-0.0,9.8100004196167,-0.0,-0.0,-0.0,-94.67617797851562,-24.42095947265625,0.001868019113317132,-0.1592101752758026,-0.0,0.0
1152,35.69127271758043,0.0,-0.0,9.8100004196167,-0.0,-0.0,-0.0,-94.67617797851562,-24.42095947265625,0.001868019113317132,-0.1592101752758026,-0.0,0.0
1153,35.701272717356915,0.0,-0.0,9.8100004196167,-0.0,-0.0,-0.0,-94.67617797851562,-24.42095947265625,0.001868019113317132,-0.1592101752758026,-0.0,0.0
1154,35.7112727171334,0.0,-0.0,9.8100004196167,-0.0,-0.0,-0.0,-94.67617797851562,-24.42095947265625,0.001868019113317132,-0.1592101752758026,-0.0,0.0
1155,35.72127271690988,0.0,-0.0,9.8100004196167,-0.0,-0.0,-0.0,-94.67617797851562,-24.42095947265625,0.001868019113317132,-0.1592101752758026,-0.0,0.0
1156,35.73127271668636,0.0,-0.0,9.8100004196167,-0.0,-0.0,-0.0,-94.67617797851562,-24.42095947265625,0.001868019113317132,-0.1592101752758026,-0.0,0.0
1157,35.741272716462845,0.0,-0.0,9.8100004196167,-0.0,-0.0,-0.0,-94.67617797851562,-24.42095947265625,0.001868019113317132,-0.1592101752758026,-0.0,0.0
1158,35.75127271623933,0.0,-0.0,9.187824249267578,-2.2272257638178417e-07,-6.926073865543003e-07,-6.705484084656987e-11,-94.67617797851562,-24.42095947265625,0.0018058012938126922,-0.1592101752758026,-0.0,0.0
1159,35.76127271601581,0.0,-0.0,9.905366897583008,-8.7572163920413e-07,3.786366278291098e-07,4.313377433007304e-11,-94.67617797851562,-24.42095947265625,0.0017531203338876367,-0.1592101752758026,-0.0,0.0
1160,35.77127271579229,0.0,-0.0,9.893924713134766,6.715196718687366e-07,-3.0836739028927695e-07,-4.8913526007332564e-11,-94.67617797851562,-24.42095947265625,0.0017088317545130849,-0.1592101752758026,-0.0,0.0
1161,35.781272715568775,0.0,-0.0,9.882478713989258,-2.2769731344851607e-07,-6.389416853380681e-07,-3.412304466765548e-11,-94.67617797851562,-24.42095947265625,0.0016717910766601562,-0.1592101752758026,-0.0,0.0
1162,35.79127271534526,0.0,-0.0,9.873706817626953,-9.040120971803844e-07,4.285751344923483e-07,9.780577736595575e-11,-94.67617797851562,-24.42095947265625,0.0016411208780482411,-0.1592101752758026,-0.0,0.0
1163,35.80127271512174,0.0,-0.0,9.8649320602417,-2.453375316235906e-07,1.0237756242759133e-07,-2.5553340693429405e-11,-94.67617797851562,-24.42095947265625,0.0016159438528120518,-0.1592101752758026,-0.0,0.0
1164,35.81127271489822,0.0,-0.0,9.857685089111328,8.549719723305316e-07,-2.3127066128836304e-07,3.160693928805358e-11,-94.67617797851562,-24.42095947265625,0.0015955351991578937,-0.1592101752758026,-0.0,0.0
1165,35.821272714674706,0.0,-0.0,9.85119915008545,-6.89618051552543e-09,1.3514045349438675e-07,7.085443343157749e-13,-94.67617797851562,-24.42095947265625,0.0015792464837431908,-0.1592101752758026,-0.0,0.0
1166,35.83127271445119,0.0,-0.0,9.845475196838379,9.02541273717361e-07,-2.0681109447195922e-07,-8.910830406883008e-12,-94.67617797851562,-24.42095947265625,0.0015665054088458419,-0.1592101752758026,-0.0,0.0
1167,35.84127271422767,0.0,-0.0,9.840901374816895,3.5468353587475576e-08,1.5819063037270098e-07,4.753354654329911e-11,-94.67617797851562,-24.42095947265625,0.0015568542294204235,-0.1592101752758026,-0.0,0.0
1168,35.85127271400415,0.0,-0.0,9.83594036102295,9.567262395648868e-07,-1.7763879611720768e-07,-5.138557634953855e-11,-94.67617797851562,-24.42095947265625,0.001549797016195953,-0.1592101752758026,-0.0,0.0
1169,35.861272713780636,0.0,-0.0,9.832124710083008,-8.24426081180718e-07,5.453606490846141e-07,1.04139474821352e-11,-94.67617797851562,-24.42095947265625,0.001544952392578125,-0.1592101752758026,-0.0,0.0
1170,35.87127271355712,0.0,-0.0,9.82907485961914,-1.9085106828242715e-07,2.1349700318751275e-07,-6.0192684170345956e-12,-94.67617797851562,-24.42095947265625,0.0015420150011777878,-0.1592101752758026,-0.0,0.0
1171,35.8812727133336,0.0,-0.0,9.825639724731445,9.099269391299458e-07,-1.4040102769286023e-07,-7.011849434412909e-12,-94.67617797851562,-24.42095947265625,0.0015406417660415173,-0.1592101752758026,-0.0,0.0
1172,35.891272713110084,0.0,-0.0,9.82373332977295,-1.9487606550683267e-07,-4.873054422205314e-07,-7.784456412807117e-11,-94.67617797851562,-24.42095947265625,0.0015406417660415173,-0.1592101752758026,-0.0,0.0
1173,35.901272712886566,0.0,-0.0,9.82029914855957,-8.795671533334826e-07,5.679697778759873e-07,1.0430795116533886e-10,-94.67617797851562,-24.42095947265625,0.0015416716923937201,-0.1592101752758026,-0.0,0.0
1174,35.91127271266305,0.0,-0.0,9.819538116455078,-3.781592816665125e-09,2.2891984485795547e-07,3.242339730036292e-11,-94.67617797851562,-24.42095947265625,0.0015436554094776511,-0.1592101752758026,-0.0,0.0
1175,35.92127271243953,0.0,-0.0,9.81724739074707,-2.1917935555393342e-07,2.3091060086244397e-07,-6.126779639181734e-12,-94.67617797851562,-24.42095947265625,0.0015463638119399548,-0.1592101752758026,-0.0,0.0
1176,35.931272712216014,0.0,-0.0,9.81572437286377,-2.1635266023167787e-07,-4.62304910797684e-07,-6.405686397981114e-11,-94.67617797851562,-24.42095947265625,0.0015496443957090378,-0.1592101752758026,-0.0,0.0
1177,35.9412727119925,0.0,-0.0,9.814957618713379,8.87785631675797e-07,-1.1360432949913957e-07,8.612310864464234e-11,-94.67617797851562,-24.42095947265625,0.0015534210251644254,-0.1592101752758026,-0.0,0.0
1178,35.95127271176898,0.0,-0.0,9.813434600830078,2.260905063167229e-08,2.45801913933974e-07,3.849143226375418e-12,-94.67617797851562,-24.42095947265625,0.0015575408469885588,-0.1592101752758026,-0.0,0.0
1179,35.96127271154546,0.0,-0.0,9.81266975402832,3.293185102393181e-08,2.477115401688934e-07,-1.7717868838751372e-11,-94.67617797851562,-24.42095947265625,0.0015619277255609632,-0.1592101752758026,-0.0,0.0
1180,35.971272711321944,0.0,-0.0,9.811908721923828,3.235371437426693e-08,2.7031714466829726e-07,6.030509425158925e-12,-94.67617797851562,-24.42095947265625,0.0015665054088458419,-0.1592101752758026,-0.0,0.0
1181,35.98127271109843,0.0,-0.0,9.811145782470703,-1.9286835595266894e-07,-4.23700413421102e-07,-5.3809342398514204e-11,-94.67617797851562,-24.42095947265625,0.0015711975283920765,-0.1592101752758026,-0.0,0.0
1182,35.99127271087491,0.0,-0.0,9.810762405395508,-1.8844131943751563e-07,2.802858887207549e-07,6.483866221707046e-11,-94.67617797851562,-24.42095947265625,0.0015759658999741077,-0.1592101752758026,-0.0,0.0
1183,36.00127271065139,0.0,-0.0,9.810001373291016,3.835621242842535e-08,2.919785799804231e-07,-7.113198918773378e-12,-94.67617797851562,-24.42095947265625,0.001580734271556139,-0.1592101752758026,-0.0,0.0
1184,36.011272710427875,0.0,-0.0,9.80961799621582,3.682161064944012e-08,-4.007618201740115e-07,-6.285635900660225e-11,-94.67617797851562,-24.42095947265625,0.001585464458912611,-0.1592101752758026,-0.0,0.0
1185,36.02127271020436,0.0,-0.0,9.809237480163574,3.469385845278339e-08,-4.008178962067177e-07,-5.458716811901354e-12,-94.67617797851562,-24.42095947265625,0.0015901183942332864,-0.1592101752758026,-0.0,0.0
1186,36.03127270998084,0.0,-0.0,9.809237480163574,3.2088109946926124e-08,-3.8904477150936145e-07,5.9468020785491404e-12,-94.67617797851562,-24.42095947265625,0.0015946959611028433,-0.1592101752758026,-0.0,0.0
1187,36.04127270975732,0.0,-0.0,9.809237480163574,-1.9070924395236943e-07,3.386885794043337e-07,1.8860607520210237e-11,-94.67617797851562,-24.42095947265625,0.0015991973923519254,-0.1592101752758026,-0.0,0.0
1188,36.051272709533805,0.0,-0.0,9.80847454071045,-2.226346538236612e-07,3.486541118036257e-07,1.9411069973607198e-11,-94.67617797851562,-24.42095947265625,0.0016035460866987705,-0.1592101752758026,-0.0,0.0
1189,36.06127270931029,0.0,-0.0,9.808856964111328,-2.1704327934912726e-07,3.5901436490348715e-07,-5.060309810067665e-12,-94.67617797851562,-24.42095947265625,0.0016077804611995816,-0.1592101752758026,-0.0,0.0
1190,36.07127270908677,0.0,-0.0,9.808091163635254,8.817365255708864e-07,1.785459957659441e-08,-2.2043644687386177e-10,-94.67617797851562,-24.42095947265625,0.0016118240309879184,-0.1592101752758026,-0.0,0.0
1191,36.08127270886325,0.0,-0.0,9.808857917785645,-2.1004328232265834e-07,3.9006013707876264e-07,1.387354814363917e-10,-94.67617797851562,-24.42095947265625,0.0016157531645148993,-0.1592101752758026,-0.0,0.0
1192,36.091272708639735,0.0,-0.0,9.807710647583008,-2.2705583546667185e-07,3.985762191405229e-07,-3.9503553206365893e-11,-94.67617797851562,-24.42095947265625,0.0016194534255191684,-0.1592101752758026,-0.0,0.0
1193,36.10127270841622,0.0,-0.0,9.80923843383789,-9.013861017592717e-07,-6.624952106903947e-07,-8.187313327301382e-11,-94.67617797851562,-24.42095947265625,0.001623077318072319,-0.1592101752758026,-0.0,0.0
1194,36.1112727081927,0.0,-0.0,9.80809211730957,-2.3229343071307085e-07,-3.1497390295953664e-07,-4.602105849182969e-11,-94.67617797851562,-24.42095947265625,0.001626510638743639,-0.1592101752758026,-0.0,0.0
1195,36.12127270796918,0.0,-0.0,9.80847454071045,-6.093426208053643e-09,-3.113173647761869e-07,9.117612914666395e-12,-94.67617797851562,-24.42095947265625,0.001629791222512722,-0.1592101752758026,-0.0,0.0
1196,36.131272707745666,0.0,-0.0,9.80809211730957,8.954446002462646e-07,4.6514092133520535e-08,-4.767674102734709e-12,-94.67617797851562,-24.42095947265625,0.0016328811179846525,-0.1592101752758026,-0.0,0.0
1197,36.14127270752215,0.0,-0.0,9.808475494384766,-1.9618551050371025e-07,-2.904466214204149e-07,8.553543290323873e-11,-94.67617797851562,-24.42095947265625,0.001635818392969668,-0.1592101752758026,-0.0,0.0
1198,36.15127270729863,0.0,-0.0,9.80847454071045,4.0849290172673136e-08,4.2378610487503465e-07,2.0361955177516933e-11,-94.67617797851562,-24.42095947265625,0.00163860316388309,-0.1592101752758026,-0.0,0.0
1199,36.16127270707511,0.0,-0.0,9.78215217590332,-0.0,-0.0,-0.0,-94.67617797851562,-24.42095947265625,0.00163860316388309,-0.1592101752758026,-0.0,0.0
1200,36.171272706851596,0.0,-0.0,9.8100004196167,2.2488093520678376e-07,1.2577855201811872e-08,-1.3853838215505121e-11,-94.67617797851562,-24.42095947265625,0.00163860316388309,-0.1592101752758026,-0.0,0.0
1201,36.18127270662808,0.0,-0.0,9.82487678527832,2.224480653012506e-07,-6.815752726652136e-07,-6.435935118176417e-11,-94.67617797851562,-24.42095947265625,0.0016400909516960382,-0.1592101752758026,-0.0,0.0
1202,36.19127270640456,0.0,-0.0,9.80542278289795,-6.651146122749196e-07,3.7427116694743745e-07,1.7456602829923895e-10,-94.67617797851562,-24.42095947265625,0.0016411208780482411,-0.1592101752758026,-0.0,0.0
1203,36.201272706181044,0.0,-0.0,9.81114673614502,2.042711315652923e-07,3.9462328516037815e-08,-1.328687854185162e-10,-94.67617797851562,-24.42095947265625,0.0016422652406618,-0.1592101752758026,-0.0,0.0
1204,36.211272705957526,0.0,-0.0,9.811142921447754,2.1939092675893335e-07,4.6021416011399197e-08,2.889158357000099e-11,-94.67617797851562,-24.42095947265625,0.0016435241559520364,-0.1592101752758026,-0.0,0.0
1205,36.22127270573401,0.0,-0.0,9.81076431274414,-7.743008012539576e-09,6.782352102163713e-08,2.7170642472040818e-11,-94.67617797851562,-24.42095947265625,0.0016448593232780695,-0.1592101752758026,-0.0,0.0
1206,36.23127270551049,0.0,-0.0,9.810380935668945,-1.5428664568162276e-08,-6.371577114805405e-07,-8.470314727393458e-11,-94.67617797851562,-24.42095947265625,0.00164623255841434,-0.1592101752758026,-0.0,0.0
1207,36.241272705286974,0.0,-0.0,9.810380935668945,1.956466348929098e-07,7.423489734037503e-08,5.730090707478652e-11,-94.67617797851562,-24.42095947265625,0.0016476439777761698,-0.1592101752758026,-0.0,0.0
1208,36.25127270506346,0.0,-0.0,9.8100004196167,1.0774535894597648e-06,-2.478932685789914e-07,-8.261635819906132e-11,-94.67617797851562,-24.42095947265625,0.0016490553971379995,-0.1592101752758026,-0.0,0.0
1209,36.26127270483994,0.0,-0.0,9.810001373291016,-6.734403541486245e-07,-2.407251145086775e-07,1.6250936707429275e-10,-94.67617797851562,-24.42095947265625,0.0016504669329151511,-0.1592101752758026,-0.0,0.0
1210,36.27127270461642,0.0,-0.0,9.8100004196167,-6.886817800477729e-07,4.708622896032466e-07,6.55224485779371e-12,-94.67617797851562,-24.42095947265625,0.0016518783522769809,-0.1592101752758026,-0.0,0.0
1211,36.281272704392904,0.0,-0.0,9.80961799621582,1.696535463224791e-07,1.4027183681264432e-07,-1.1158104995523388e-10,-94.67617797851562,-24.42095947265625,0.0016532515874132514,-0.1592101752758026,-0.0,0.0
1212,36.29127270416939,0.0,-0.0,9.8100004196167,-7.051628614362926e-08,1.5640560491192446e-07,5.367358640873121e-11,-94.67617797851562,-24.42095947265625,0.0016546249389648438,-0.1592101752758026,-0.0,0.0
1213,36.30127270394587,0.0,-0.0,9.80961799621582,8.105101301225659e-07,-1.9780290472226625e-07,-9.938194017733437e-11,-94.67617797851562,-24.42095947265625,0.001655959989875555,-0.1592101752758026,-0.0,0.0
1214,36.31127270372235,0.0,-0.0,9.809619903564453,1.0539220056671184e-06,-2.0363084729524417e-07,2.2247155506693872e-11,-94.67617797851562,-24.42095947265625,0.0016572570893913507,-0.1592101752758026,-0.0,0.0
1215,36.321272703498835,0.0,-0.0,9.809237480163574,-7.312235652534582e-07,-1.7711015232180216e-07,1.4583231844333966e-10,-94.67617797851562,-24.42095947265625,0.0016584777040407062,-0.1592101752758026,-0.0,0.0
1216,36.33127270327532,0.0,-0.0,9.809619903564453,9.981712310036528e-07,-1.6074278619271354e-07,-1.947711991689971e-10,-94.67617797851562,-24.42095947265625,0.0016596602508798242,-0.1592101752758026,-0.0,0.0
1217,36.3412727030518,0.0,-0.0,9.809617042541504,-7.64886124215991e-07,5.476795195136219e-07,2.5687330040824463e-10,-94.67617797851562,-24.42095947265625,0.0016608047299087048,-0.1592101752758026,-0.0,0.0
1218,36.35127270282828,0.0,-0.0,9.80962085723877,9.068782702570388e-08,-4.784794214174326e-07,-2.3256857550890686e-10,-94.67617797851562,-24.42095947265625,0.0016619110247120261,-0.1592101752758026,-0.0,0.0
1219,36.361272702604765,0.0,-0.0,9.80961799621582,8.607012347283671e-08,-4.7243810286090593e-07,1.926901693760641e-11,-94.67617797851562,-24.42095947265625,0.0016629791352897882,-0.1592101752758026,-0.0,0.0
1220,36.37127270238125,0.0,-0.0,9.79931926727295,-8.000197340152226e-07,5.961790634501085e-07,1.8248785815799806e-10,-94.67617797851562,-24.42095947265625,0.0016629791352897882,-0.1592101752758026,-0.0,0.0
1221,36.38127270215773,0.0,-0.0,9.82945442199707,5.534140612439842e-08,-4.285362251721381e-07,-2.0560712854500451e-10,-94.67617797851562,-24.42095947265625,0.0016649245517328382,-0.1592101752758026,-0.0,0.0
1222,36.39127270193421,0.0,-0.0,9.790546417236328,-8.175978791769012e-07,-6.876301483771385e-08,1.2419250350337308e-10,-94.67617797851562,-24.42095947265625,0.0016649245517328382,-0.1592101752758026,-0.0,0.0
1223,36.401272701710695,0.0,-0.0,9.827930450439453,5.475665076914993e-08,3.004136601703067e-07,-5.064122732267862e-11,-94.67617797851562,-24.42095947265625,0.0016667174641042948,-0.1592101752758026,-0.0,0.0
1224,36.41127270148718,0.0,-0.0,9.792070388793945,-1.9504581416640576e-07,3.373315848875791e-07,5.452095719338246e-11,-94.67617797851562,-24.42095947265625,0.0016667174641042948,-0.1592101752758026,-0.0,0.0
1225,36.42127270126366,0.0,-0.0,9.825639724731445,-8.575947845201881e-07,7.135452619877469e-07,8.306724058604331e-11,-94.67617797851562,-24.42095947265625,0.0016682815039530396,-0.1592101752758026,-0.0,0.0
1226,36.43127270104014,0.0,-0.0,9.794361114501953,-1.9950917362621112e-07,-3.2288028251059586e-07,-1.8821004477143077e-10,-94.67617797851562,-24.42095947265625,0.0016682815039530396,-0.1592101752758026,-0.0,0.0
1227,36.441272700816626,0.0,-0.0,9.824115753173828,9.289444733440178e-07,3.4725680109204404e-08,-1.874789212763517e-11,-94.67617797851562,-24.42095947265625,0.0016696929233148694,-0.1592101752758026,-0.0,0.0
1228,36.45127270059311,0.0,-0.0,9.79588508605957,-1.487826324364505e-07,-3.0930939942663827e-07,9.68807950529893e-11,-94.67617797851562,-24.42095947265625,0.0016696929233148694,-0.1592101752758026,-0.0,0.0
1229,36.46127270036959,0.0,-0.0,9.822589874267578,-1.4304674778031767e-07,-3.0274887308223697e-07,-3.672895321216174e-11,-94.67617797851562,-24.42095947265625,0.0016709518386051059,-0.1592101752758026,-0.0,0.0
1230,36.47127270014607,0.0,-0.0,9.79741096496582,7.534268888775841e-07,5.6495881750606713e-08,-3.2042701825218955e-11,-94.67617797851562,-24.42095947265625,0.0016709518386051059,-0.1592101752758026,-0.0,0.0
1231,36.481272699922556,0.0,-0.0,9.821062088012695,1.081228262478362e-07,4.2707529246399645e-07,1.2571181595699699e-10,-94.67617797851562,-24.42095947265625,0.0016720580169931054,-0.1592101752758026,-0.0,0.0
1232,36.49127269969904,0.0,-0.0,9.798938751220703,9.301317049903446e-08,-2.491447901320498e-07,-9.059362982011265e-11,-94.67617797851562,-24.42095947265625,0.0016720580169931054,-0.1592101752758026,-0.0,0.0
1233,36.50127269947552,0.0,-0.0,9.8100004196167,-7.910665544841322e-07,1.0642320091847068e-07,8.920610777840565e-11,-94.67617797851562,-24.42095947265625,0.0016720580169931054,-0.1592101752758026,-0.0,0.0
1234,36.511272699252004,0.0,-0.0,9.824113845825195,-1.3370441820370615e-07,-2.353786072717412e-07,-1.2358192247319266e-10,-94.67617797851562,-24.42095947265625,0.001673469552770257,-0.1592101752758026,-0.0,0.0
1235,36.521272699028486,0.0,-0.0,9.795886993408203,9.493208352751026e-08,4.830990292248316e-07,8.112409355387484e-11,-94.67617797851562,-24.42095947265625,0.001673469552770257,-0.1592101752758026,-0.0,0.0
1236,36.53127269880497,0.0,-0.0,9.8100004196167,-1.3139374743786902e-07,5.05431216879515e-07,3.72876694798574e-11,-94.67617797851562,-24.42095947265625,0.001673469552770257,-0.1592101752758026,-0.0,0.0
1237,36.54127269858145,0.0,-0.0,9.821826934814453,9.538759826455134e-08,-1.996915415247713e-07,-9.825502911287032e-11,-94.67617797851562,-24.42095947265625,0.001674652099609375,-0.1592101752758026,-0.0,0.0
1238,36.551272698357934,0.0,-0.0,9.798173904418945,-1.333027768168904e-07,5.17621401741053e-07,9.926048871733428e-11,-94.67617797851562,-24.42095947265625,0.001674652099609375,-0.1592101752758026,-0.0,0.0
1239,36.56127269813442,0.0,-0.0,9.8100004196167,-1.0943333705881741e-07,5.284962867335707e-07,-6.302292021587164e-12,-94.67617797851562,-24.42095947265625,0.001674652099609375,-0.1592101752758026,-0.0,0.0
1240,36.5712726979109,0.0,-0.0,9.8100004196167,-7.508395469812967e-07,-5.194075356484973e-07,-7.125619538861372e-11,-94.67617797851562,-24.42095947265625,0.001674652099609375,-0.1592101752758026,-0.0,0.0
1241,36.58127269768738,0.0,-0.0,9.8100004196167,-0.0,-0.0,-0.0,-94.67617797851562,-24.42095947265625,0.001674652099609375,-0.1592101752758026,-0.0,0.0
1242,36.591272697463864,0.0,-0.0,9.820301055908203,1.2775584146140773e-08,-5.188049989612864e-09,-1.4267744971596663e-12,-94.67617797851562,-24.42095947265625,0.001675682025961578,-0.1592101752758026,-0.0,0.0
1243,36.60127269724035,0.0,-0.0,9.799699783325195,1.1322503041810705e-06,3.4073471510964737e-07,-3.766685921502422e-11,-94.67617797851562,-24.42095947265625,0.001675682025961578,-0.1592101752758026,-0.0,0.0
1244,36.61127269701683,0.0,-0.0,9.8100004196167,-6.053324455024267e-07,-3.65515035127828e-07,9.557791363912216e-11,-94.67617797851562,-24.42095947265625,0.001675682025961578,-0.1592101752758026,-0.0,0.0
1245,36.62127269679331,0.0,-0.0,9.8100004196167,2.899494973007677e-07,-1.8573482307715494e-08,-9.401950745724363e-11,-94.67617797851562,-24.42095947265625,0.001675682025961578,-0.1592101752758026,-0.0,0.0
1246,36.631272696569795,0.0,-0.0,9.8100004196167,3.046176857424143e-07,-2.2793001264176382e-08,2.3204022037148775e-11,-94.67617797851562,-24.42095947265625,0.001675682025961578,-0.1592101752758026,-0.0,0.0
1247,36.64127269634628,0.0,-0.0,9.8100004196167,3.019083294475422e-07,-2.0906718134483526e-08,8.632781989259541e-12,-94.67617797851562,-24.42095947265625,0.001675682025961578,-0.1592101752758026,-0.0,0.0
1248,36.65127269612276,0.0,-0.0,9.8100004196167,3.02182030509357e-07,6.741913125551946e-07,7.686743602741686e-11,-94.67617797851562,-24.42095947265625,0.001675682025961578,-0.1592101752758026,-0.0,0.0
1249,36.66127269589924,0.0,-0.0,9.8100004196167,3.093658733632765e-07,-2.8387855621758717e-08,-7.374462845932683e-11,-94.67617797851562,-24.42095947265625,0.001675682025961578,-0.1592101752758026,-0.0,0.0
1250,36.671272695675725,0.0,-0.0,9.8100004196167,-5.780275955657999e-07,-3.919343782854412e-07,1.852189235318491e-11,-94.67617797851562,-24.42095947265625,0.001675682025961578,-0.1592101752758026,-0.0,0.0
1251,36.68127269545221,0.0,-0.0,9.82029914855957,-5.852722892996098e-07,-4.042075829602254e-07,-4.4315835723285346e-11,-94.67617797851562,-24.42095947265625,0.0016767119523137808,-0.1592101752758026,-0.0,0.0
1252,36.69127269522869,0.0,-0.0,9.799701690673828,2.864211694486585e-07,-5.483898846136981e-08,-3.2602556071514854e-11,-94.67617797851562,-24.42095947265625,0.0016767119523137808,-0.1592101752758026,-0.0,0.0
1253,36.70127269500517,0.0,-0.0,9.8100004196167,1.1764012697312864e-06,2.997316244091053e-07,1.868302040852754e-11,-94.67617797851562,-24.42095947265625,0.0016767119523137808,-0.1592101752758026,-0.0,0.0
1254,36.711272694781655,0.0,-0.0,9.8100004196167,-5.84774397793808e-07,3.060203255245142e-07,1.7392774720459414e-10,-94.67617797851562,-24.42095947265625,0.0016767119523137808,-0.1592101752758026,-0.0,0.0
1255,36.72127269455814,0.0,-0.0,9.8100004196167,-6.078591923142085e-07,3.1074273465492297e-07,-6.830841448035585e-11,-94.67617797851562,-24.42095947265625,0.0016767119523137808,-0.1592101752758026,-0.0,0.0
1256,36.73127269433462,0.0,-0.0,9.8100004196167,-6.211508889464312e-07,-4.0083028807202936e-07,-9.67742483370948e-11,-94.67617797851562,-24.42095947265625,0.0016767119523137808,-0.1592101752758026,-0.0,0.0
1257,36.7412726941111,0.0,-0.0,9.8100004196167,2.6365378857917676e-07,-5.906179012526991e-08,-3.013218147218666e-11,-94.67617797851562,-24.42095947265625,0.0016767119523137808,-0.1592101752758026,-0.0,0.0
1258,36.751272693887586,0.0,-0.0,9.8100004196167,1.17291472179204e-06,2.884310390527389e-07,1.8403924217924583e-11,-94.67617797851562,-24.42095947265625,0.0016767119523137808,-0.1592101752758026,-0.0,0.0
1259,36.76127269366407,0.0,-0.0,9.8100004196167,2.93322386824002e-07,-6.655447748471488e-08,7.638208121552026e-11,-94.67617797851562,-24.42095947265625,0.0016767119523137808,-0.1592101752758026,-0.0,0.0
1260,36.77127269344055,0.0,-0.0,9.82068157196045,2.814780657445226e-07,-7.175719218821541e-08,-2.938795040652309e-11,-94.67617797851562,-24.42095947265625,0.001677780062891543,-0.1592101752758026,-0.0,0.0
1261,36.78127269321703,0.0,-0.0,9.79931926727295,2.67331159875539e-07,6.271150141401449e-07,6.759533210942692e-11,-94.67617797851562,-24.42095947265625,0.001677780062891543,-0.1592101752758026,-0.0,0.0
1262,36.791272692993516,0.0,-0.0,9.8100004196167,-6.151109346319572e-07,-4.323590019339463e-07,-5.495884303208243e-11,-94.67617797851562,-24.42095947265625,0.001677780062891543,-0.1592101752758026,-0.0,0.0
1263,36.80127269277,0.0,-0.0,9.8100004196167,2.5540563797221694e-07,-8.401759288290123e-08,-6.732275847909364e-11,-94.67617797851562,-24.42095947265625,0.001677780062891543,-0.1592101752758026,-0.0,0.0
1264,36.81127269254648,0.0,-0.0,9.8100004196167,-6.41323367744917e-07,2.5186255925291334e-07,1.2842538144042237e-10,-94.67617797851562,-24.42095947265625,0.001677780062891543,-0.1592101752758026,-0.0,0.0
1265,36.821272692322964,0.0,-0.0,9.8100004196167,-6.440907327487366e-07,-4.5497921519199735e-07,-1.0889267265667968e-10,-94.67617797851562,-24.42095947265625,0.001677780062891543,-0.1592101752758026,-0.0,0.0
1266,36.831272692099446,0.0,-0.0,9.8100004196167,1.1244725328651839e-06,2.3662475712171727e-07,-5.689251153517816e-11,-94.67617797851562,-24.42095947265625,0.001677780062891543,-0.1592101752758026,-0.0,0.0
1267,36.84127269187593,0.0,-0.0,9.8100004196167,-6.125043796600949e-07,-4.710098835403187e-07,1.2532352933192215e-10,-94.67617797851562,-24.42095947265625,0.001677780062891543,-0.1592101752758026,-0.0,0.0
1268,36.85127269165241,0.0,-0.0,9.8100004196167,1.1394488410587655e-06,2.3049329911373206e-07,-1.0575412767721559e-10,-94.67617797851562,-24.42095947265625,0.001677780062891543,-0.1592101752758026,-0.0,0.0
1269,36.861272691428894,0.0,-0.0,9.8100004196167,-6.133370789029868e-07,-4.700678175595385e-07,1.1075733385990105e-10,-94.67617797851562,-24.42095947265625,0.001677780062891543,-0.1592101752758026,-0.0,0.0
1270,36.87127269120538,0.0,-0.0,9.8100004196167,2.4932523956522346e-07,5.832954457218875e-07,-1.1433111402059382e-11,-94.67617797851562,-24.42095947265625,0.001677780062891543,-0.1592101752758026,-0.0,0.0
1271,36.88127269098186,0.0,-0.0,9.8100004196167,2.562316865351022e-07,-1.1077787576141418e-07,-4.920581303524685e-11,-94.67617797851562,-24.42095947265625,0.001677780062891543,-0.1592101752758026,-0.0,0.0
1272,36.89127269075834,0.0,-0.0,9.8100004196167,-6.252863045119739e-07,-4.639656197014119e-07,2.6502924854732157e-11,-94.67617797851562,-24.42095947265625,0.001677780062891543,-0.1592101752758026,-0.0,0.0
1273,36.901272690534825,0.0,-0.0,9.8100004196167,2.3707637808456639e-07,5.88011630497931e-07,1.3926043478107442e-11,-94.67617797851562,-24.42095947265625,0.001677780062891543,-0.1592101752758026,-0.0,0.0
1274,36.91127269031131,0.0,-0.0,9.82029914855957,2.4329762027264223e-07,-1.0794401106295481e-07,-4.1774150111306696e-11,-94.67617797851562,-24.42095947265625,0.0016788101056590676,-0.1592101752758026,-0.0,0.0
1275,36.92127269008779,0.0,-0.0,9.799701690673828,-6.40330199530581e-07,-4.630141745565197e-07,2.7879372421768522e-11,-94.67617797851562,-24.42095947265625,0.0016788101056590676,-0.1592101752758026,-0.0,0.0
1276,36.93127268986427,0.0,-0.0,9.8100004196167,2.5301307715608345e-09,5.787364329989941e-07,2.7806281582831716e-11,-94.67617797851562,-24.42095947265625,0.0016788101056590676,-0.1592101752758026,-0.0,0.0
1277,36.941272689640755,0.0,-0.0,9.8100004196167,1.1005276974174194e-06,2.3437071661192022e-07,-8.797217121436773e-11,-94.67617797851562,-24.42095947265625,0.0016788101056590676,-0.1592101752758026,-0.0,0.0
1278,36.95127268941724,0.0,-0.0,9.8100004196167,2.3770923007759848e-07,-1.1173342073789172e-07,7.781984778798545e-11,-94.67617797851562,-24.42095947265625,0.0016788101056590676,-0.1592101752758026,-0.0,0.0
1279,36.96127268919372,0.0,-0.0,9.8100004196167,-6.515653012684197e-07,-4.6394964670071204e-07,-5.45753719993769e-12,-94.67617797851562,-24.42095947265625,0.0016788101056590676,-0.1592101752758026,-0.0,0.0
1280,36.9712726889702,0.0,-0.0,9.8100004196167,-2.2143753497516627e-08,5.716873374694842e-07,1.8126795203743384e-11,-94.67617797851562,-24.42095947265625,0.0016788101056590676,-0.1592101752758026,-0.0,0.0
1281,36.981272688746685,0.0,-0.0,9.8100004196167,1.0659962299541803e-06,2.197922981395095e-07,-9.069769935088345e-11,-94.67617797851562,-24.42095947265625,0.0016788101056590676,-0.1592101752758026,-0.0,0.0
1282,36.99127268852317,0.0,-0.0,9.8100004196167,-6.969805212975189e-07,-4.7613713149985415e-07,9.981936111014278e-11,-94.67617797851562,-24.42095947265625,0.0016788101056590676,-0.1592101752758026,-0.0,0.0
1283,37.00127268829965,0.0,-0.0,9.8100004196167,-0.0,-0.0,-0.0,-94.67617797851562,-24.42095947265625,0.0016788101056590676,-0.1592101752758026,-0.0,0.0
1284,37.01127268807613,0.0,-0.0,9.8100004196167,-6.361096982487879e-09,4.7132493463664105e-09,9.4122452887202e-13,-94.67617797851562,-24.42095947265625,0.0016788101056590676,-0.1592101752758026,-0.0,0.0
1285,37.021272687852615,0.0,-0.0,9.8100004196167,-1.2750080102819084e-08,9.426893043951168e-09,6.592058713131288e-13,-94.67617797851562,-24.42095947265625,0.0016788101056590676,-0.1592101752758026,-0.0,0.0
1286,37.0312726876291,0.0,-0.0,9.8100004196167,-1.9143072904626024e-08,1.4140565163245356e-08,5.800253940341227e-13,-94.67617797851562,-24.42095947265625,0.0016788101056590676,-0.1592101752758026,-0.0,0.0
1287,37.04127268740558,0.0,-0.0,9.8100004196167,-2.553660749526898e-08,1.8854180439120682e-08,5.646988410733245e-13,-94.67617797851562,-24.42095947265625,0.0016788101056590676,-0.1592101752758026,-0.0,0.0
1288,37.05127268718206,0.0,-0.0,9.8100004196167,-3.19302664308907e-08,2.3567800155888108e-08,5.621157836074864e-13,-94.67617797851562,-24.42095947265625,0.0016788101056590676,-0.1592101752758026,-0.0,0.0
1289,37.061272686958546,0.0,-0.0,9.8100004196167,-3.8323914708371376e-08,2.8281419872655533e-08,5.616250737042194e-13,-94.67617797851562,-24.42095947265625,0.0016788101056590676,-0.1592101752758026,-0.0,0.0
1290,37.07127268673503,0.0,-0.0,9.8100004196167,-9.203029662785411e-07,-3.2485047540831147e-07,2.1023151969279397e-11,-94.67617797851562,-24.42095947265625,0.0016788101056590676,-0.1592101752758026,-0.0,0.0
1291,37.08127268651151,0.0,-0.0,9.8100004196167,-9.328182386525441e-07,-3.3193785498042416e-07,-4.3175164832209845e-11,-94.67617797851562,-24.42095947265625,0.0016788101056590676,-0.1592101752758026,-0.0,0.0
1292,37.091272686287994,0.0,-0.0,9.8100004196167,-2.888991446070577e-07,7.093717044881487e-07,5.7615020393475547e-11,-94.67617797851562,-24.42095947265625,0.0016788101056590676,-0.1592101752758026,-0.0,0.0
1293,37.101272686064476,0.0,-0.0,9.8100004196167,5.964832325844327e-07,3.557185834779375e-07,-6.601272306561157e-11,-94.67617797851562,-24.42095947265625,0.0016788101056590676,-0.1592101752758026,-0.0,0.0
1294,37.11127268584096,0.0,-0.0,9.8100004196167,-5.768983157850016e-08,-8.409537066711437e-09,5.327994989645646e-11,-94.67617797851562,-24.42095947265625,0.0016788101056590676,-0.1592101752758026,-0.0,0.0
1295,37.12127268561744,0.0,-0.0,9.8100004196167,-6.980217648333564e-08,-2.5387327795556303e-08,-2.1016362261594423e-11,-94.67617797851562,-24.42095947265625,0.0016788101056590676,-0.1592101752758026,-0.0,0.0
1296,37.131272685393924,0.0,-0.0,9.8100004196167,8.14811983218533e-07,3.1408367817675753e-07,-2.9588730771079597e-11,-94.67617797851562,-24.42095947265625,0.0016788101056590676,-0.1592101752758026,-0.0,0.0
1297,37.14127268517041,0.0,-0.0,9.8100004196167,8.184717898984673e-07,3.0139602813505917e-07,4.031255884662244e-11,-94.67617797851562,-24.42095947265625,0.0016788101056590676,-0.1592101752758026,-0.0,0.0
1298,37.15127268494689,0.0,-0.0,9.8100004196167,8.188617357518524e-07,2.886808943003416e-07,9.577647702707637e-12,-94.67617797851562,-24.42095947265625,0.0016788101056590676,-0.1592101752758026,-0.0,0.0
1299,37.16127268472337,0.0,-0.0,9.8100004196167,-6.959319165389388e-08,-7.76344606379098e-08,2.2475184907611023e-11,-94.67617797851562,-24.42095947265625,0.0016788101056590676,-0.1592101752758026,-0.0,0.0
1300,37.171272684499854,0.0,-0.0,9.8100004196167,-8.868457257449336e-08,-9.602133843600313e-08,-4.385262639128307e-11,-94.67617797851562,-24.42095947265625,0.0016788101056590676,-0.1592101752758026,-0.0,0.0
1301,37.18127268427634,0.0,-0.0,9.8100004196167,-1.0452403387262166e-07,-1.1438108060701779e-07,-1.2944697397321292e-11,-94.67617797851562,-24.42095947265625,0.0016788101056590676,-0.1592101752758026,-0.0,0.0
1302,37.19127268405282,0.0,-0.0,9.8100004196167,7.684788556616695e-07,2.2085943385263818e-07,-2.5854929308621877e-11,-94.67617797851562,-24.42095947265625,0.0016788101056590676,-0.1592101752758026,-0.0,0.0
1303,37.2012726838293,0.0,-0.0,9.8100004196167,-1.0077374099637382e-06,-4.910193638352212e-07,8.508822119113191e-11,-94.67617797851562,-24.42095947265625,0.0016788101056590676,-0.1592101752758026,-0.0,0.0
1304,37.211272683605785,0.0,-0.0,9.8100004196167,-1.0300454960088246e-06,-4.976599257133785e-07,-7.531782142411458e-11,-94.67617797851562,-24.42095947265625,0.0016788101056590676,-0.1592101752758026,-0.0,0.0
1305,37.22127268338227,0.0,-0.0,9.8100004196167,-1.027024950417399e-06,-5.094383368486888e-07,-2.276482821694792e-11,-94.67617797851562,-24.42095947265625,0.0016788101056590676,-0.1592101752758026,-0.0,0.0
1306,37.23127268315875,0.0,-0.0,9.8100004196167,5.074811610938923e-07,1.7765681548098655e-07,-3.337130918823483e-11,-94.67617797851562,-24.42095947265625,0.0016788101056590676,-0.1592101752758026,-0.0,0.0
1307,37.24127268293523,0.0,-0.0,9.8100004196167,-3.718415655384888e-07,5.187389433558565e-07,1.71151412486914e-10,-94.67617797851562,-24.42095947265625,0.0016788101056590676,-0.1592101752758026,-0.0,0.0
1308,37.251272682711715,0.0,-0.0,9.8100004196167,5.00337478115398e-07,1.598553325266039e-07,-1.1922671183661748e-10,-94.67617797851562,-24.42095947265625,0.0016788101056590676,-0.1592101752758026,-0.0,0.0
1309,37.2612726824882,0.0,-0.0,9.8100004196167,-1.557596931434091e-07,-2.0474536199799331e-07,3.7602226887756274e-11,-94.67617797851562,-24.42095947265625,0.0016788101056590676,-0.1592101752758026,-0.0,0.0
1310,37.27127268226468,0.0,-0.0,9.8100004196167,4.945655405208527e-07,1.3060117964869278e-07,-3.082077995597565e-11,-94.67617797851562,-24.42095947265625,0.0016788101056590676,-0.1592101752758026,-0.0,0.0
1311,37.28127268204116,0.0,-0.0,9.8100004196167,-1.6243198786014545e-07,-2.3394298409584735e-07,3.060592751458202e-11,-94.67617797851562,-24.42095947265625,0.0016788101056590676,-0.1592101752758026,-0.0,0.0
1312,37.291272681817645,0.0,-0.0,9.8100004196167,4.877634296462929e-07,1.0140501416344705e-07,-3.326273978476735e-11,-94.67617797851562,-24.42095947265625,0.0016788101056590676,-0.1592101752758026,-0.0,0.0
1313,37.30127268159413,0.0,-0.0,9.8100004196167,-1.0572642850092961e-06,8.966173226099272e-08,1.2843588692579289e-10,-94.67617797851562,-24.42095947265625,0.0016788101056590676,-0.1592101752758026,-0.0,0.0
1314,37.31127268137061,0.0,-0.0,9.8100004196167,6.911774335094378e-07,8.058518119469227e-08,-1.8576810922876774e-10,-94.67617797851562,-24.42095947265625,0.0016788101056590676,-0.1592101752758026,-0.0,0.0
1315,37.32127268114709,0.0,-0.0,9.8100004196167,7.063710540933243e-07,7.068760510264838e-08,6.28869872842941e-11,-94.67617797851562,-24.42095947265625,0.0016788101056590676,-0.1592101752758026,-0.0,0.0
1316,37.331272680923576,0.0,-0.0,9.8100004196167,7.15819112429017e-07,6.079250169932493e-08,1.7322303313971332e-11,-94.67617797851562,-24.42095947265625,0.0016788101056590676,-0.1592101752758026,-0.0,0.0
1317,37.34127268070006,0.0,-0.0,9.8100004196167,7.084698268045031e-07,5.74998004765348e-08,4.266241006301019e-12,-94.67617797851562,-24.42095947265625,0.0016788101056590676,-0.1592101752758026,-0.0,0.0
1318,37.35127268047654,0.0,-0.0,9.8100004196167,-1.8389381750694156e-07,4.051226483170467e-07,9.844362131028461e-11,-94.67617797851562,-24.42095947265625,0.0016788101056590676,-0.1592101752758026,-0.0,0.0
1319,37.36127268025302,0.0,-0.0,9.8100004196167,-2.106066574469878e-07,-2.9887925734328746e-07,-1.154685513871101e-10,-94.67617797851562,-24.42095947265625,0.0016788101056590676,-0.1592101752758026,-0.0,0.0
1320,37.371272680029506,0.0,-0.0,9.8100004196167,6.545192263729405e-07,4.572777712041898e-08,-3.611445170692562e-11,-94.67617797851562,-24.42095947265625,0.0016788101056590676,-0.1592101752758026,-0.0,0.0
1321,37.38127267980599,0.0,-0.0,9.8100004196167,-1.1225047273910604e-06,4.0719829286217646e-08,1.5947096421164986e-10,-94.67617797851562,-24.42095947265625,0.0016788101056590676,-0.1592101752758026,-0.0,0.0
1322,37.39127267958247,0.0,-0.0,9.8100004196167,6.2508939890904e-07,3.1644155740195856e-08,-1.931167586954885e-10,-94.67617797851562,-24.42095947265625,0.0016788101056590676,-0.1592101752758026,-0.0,0.0
1323,37.401272679358954,0.0,-0.0,9.8100004196167,6.241924666028353e-07,2.834931933648477e-08,6.242197037042985e-11,-94.67617797851562,-24.42095947265625,0.0016788101056590676,-0.1592101752758026,-0.0,0.0
1324,37.411272679135436,0.0,-0.0,9.8100004196167,-2.7078829134552507e-07,-3.2854171649887576e-07,3.971921749834628e-11,-94.67617797851562,-24.42095947265625,0.0016788101056590676,-0.1592101752758026,-0.0,0.0
1325,37.42127267891192,0.0,-0.0,9.8100004196167,-0.0,-0.0,-0.0,-94.67617797851562,-24.42095947265625,0.0016788101056590676,-0.1592101752758026,-0.0,0.0
1326,37.4312726786884,0.0,-0.0,9.8100004196167,-1.9255757877090218e-08,4.826185562301077e-10,1.3549857850320146e-12,-94.67617797851562,-24.42095947265625,0.0016788101056590676,-0.1592101752758026,-0.0,0.0
1327,37.441272678464884,0.0,-0.0,9.8100004196167,-3.8595818097064694e-08,9.652395549508697e-10,4.490945375995592e-13,-94.67617797851562,-24.42095947265625,0.0016788101056590676,-0.1592101752758026,-0.0,0.0
1328,37.45127267824137,0.0,-0.0,9.8100004196167,-5.7948028597820667e-08,1.447917563623946e-09,2.0635462739601595e-13,-94.67617797851562,-24.42095947265625,0.0016788101056590676,-0.1592101752758026,-0.0,0.0
1329,37.46127267801785,0.0,-0.0,9.8100004196167,-7.730205453526651e-08,1.9306334309021622e-09,1.5958196949213826e-13,-94.67617797851562,-24.42095947265625,0.0016788101056590676,-0.1592101752758026,-0.0,0.0
1330,37.47127267779433,0.0,-0.0,9.8100004196167,-9.665633626809722e-08,2.4133555154293163e-09,1.5136951750632094e-13,-94.67617797851562,-24.42095947265625,0.0016788101056590676,-0.1592101752758026,-0.0,0.0
1331,37.481272677570814,0.0,-0.0,9.8100004196167,-1.1601063221178265e-07,2.89607804404568e-09,1.4940696249632346e-13,-94.67617797851562,-24.42095947265625,0.0016788101056590676,-0.1592101752758026,-0.0,0.0
1332,37.4912726773473,0.0,-0.0,9.8100004196167,-1.3536489973375865e-07,3.378800794706649e-09,1.490601126688182e-13,-94.67617797851562,-24.42095947265625,0.0016788101056590676,-0.1592101752758026,-0.0,0.0
1333,37.50127267712378,0.0,-0.0,9.8100004196167,-1.547191601503073e-07,3.861523545367618e-09,1.48476811900021e-13,-94.67617797851562,-24.42095947265625,0.0016788101056590676,-0.1592101752758026,-0.0,0.0
1334,37.51127267690026,0.0,-0.0,9.8100004196167,-1.7407342056685593e-07,4.344245851939377e-09,1.4766169515421923e-13,-94.67617797851562,-24.42095947265625,0.0016788101056590676,-0.1592101752758026,-0.0,0.0
1335,37.521272676676745,0.3200385868549347,-0.019108543172478676,9.82030200958252,8.612861165602226e-06,-0.00014884438132867217,0.0003997622989118099,-94.6761474609375,-24.420961380004883,0.0016798400320112705,-0.15898405015468597,9.56226431299001e-05,2.0097646483918652e-05
1336,37.53127267645323,27.1207218170166,0.015208255499601364,9.560933113098145,-2.7711498660210054e-06,0.007054471876472235,0.0001748880895320326,-94.67340850830078,-24.420969009399414,0.0016561507945880294,-0.15888388454914093,-0.003961509559303522,1.8506490960135125e-05
1337,37.54127267622971,26.081838607788086,0.012301558628678322,9.657967567443848,-2.9621232897625305e-06,0.011426643468439579,8.618045103503391e-05,-94.66805267333984,-24.420984268188477,0.0016177367651835084,-0.15883447229862213,-0.010511660948395729,1.6803076505311765e-05
1338,37.55127267600619,24.32335090637207,-0.03258984535932541,9.705934524536133,-2.214282403656398e-06,0.014298588037490845,5.0644681323319674e-05,-94.66027069091797,-24.42100715637207,0.0015697097405791283,-0.1588054597377777,-0.018694227561354637,1.5526982679148205e-05
1339,37.561272675782675,21.284740447998047,0.018977047875523567,9.757004737854004,-1.2499039030444692e-06,0.015620381571352482,3.227732304367237e-05,-94.65036010742188,-24.42103385925293,0.0015174102736636996,-0.15878698229789734,-0.027655433863401413,1.4803347767156083e-05
1340,37.57127267555916,19.686279296875,0.03453900292515755,9.777872085571289,-1.1819424798886757e-06,0.016125401481986046,1.873871406132821e-05,-94.63847351074219,-24.421066284179688,0.0014631652738898993,-0.1587762087583542,-0.036889851093292236,1.412008441548096e-05
1341,37.58127267533564,11.687935829162598,-0.047631751745939255,9.864518165588379,-1.5549577483398025e-06,0.014246013015508652,1.3172953913453966e-05,-94.62542724609375,-24.42110252380371,0.0014152907533571124,-0.1587686985731125,-0.045051924884319305,1.3223743735579774e-05
1342,37.59127267511212,19.44918441772461,0.013870514929294586,9.767388343811035,-1.6457502169942018e-06,0.014964795671403408,3.170812533426215e-06,-94.61043548583984,-24.421144485473633,0.001364974887110293,-0.15876688063144684,-0.05362381041049957,1.2279247130209114e-05
1343,37.601272674888605,15.290640830993652,0.002342688851058483,9.8236722946167,-1.2873593959739082e-06,0.01410561241209507,2.3004968170425855e-06,-94.59391021728516,-24.42119026184082,0.0013176726642996073,-0.15876556932926178,-0.06171075627207756,1.1540280866029207e-05
1344,37.61127267466509,12.891866683959961,0.015692060813307762,9.840256690979004,-3.098446939020505e-07,0.012727062217891216,1.2967037719135988e-06,-94.57611083984375,-24.421239852905273,0.0012749481247738004,-0.1587648242712021,-0.06900539994239807,1.1361902579665184e-05
1345,37.62127267444157,12.733107566833496,-0.0247509703040123,9.833256721496582,2.5020815996867896e-07,0.011549290269613266,-1.2225048067193711e-06,-94.5570297241211,-24.421293258666992,0.001236228970810771,-0.15876545011997223,-0.07563067972660065,1.1506145710882265e-05
1346,37.63127267421805,7.133916854858398,0.019731251522898674,9.880436897277832,-1.9037507570374146e-07,0.009079409763216972,1.0569193591436488e-06,-94.5372314453125,-24.42134666442871,0.0012055587721988559,-0.15876491367816925,-0.08082162588834763,1.1396213267289568e-05
1347,37.641272673994536,11.694748878479004,-0.007632484659552574,9.820769309997559,-2.9860495942557463e-07,0.008320876397192478,-4.697345502790995e-06,-94.51627349853516,-24.421405792236328,0.0011777114123106003,-0.15876756608486176,-0.08558909595012665,1.1229045412619598e-05
1348,37.65127267377102,6.735455513000488,-0.021374421194195747,9.86208438873291,-2.2565078694469776e-08,0.0063932789489626884,-3.392018697923049e-05,-94.49464416503906,-24.421466827392578,0.001156120328232646,-0.15878698229789734,-0.08925008028745651,1.1245760106248781e-05
1349,37.6612726735475,9.535819053649902,0.026384225115180016,9.825151443481445,1.3292137737153098e-06,0.005506704095751047,1.1655723028525244e-05,-94.47206115722656,-24.42152976989746,0.0011375808389857411,-0.1587803214788437,-0.0923919603228569,1.199676171381725e-05
1350,37.67127267332398,6.416324138641357,-0.002265427028760314,9.847851753234863,1.5621460534021026e-06,0.0040756394155323505,5.6672208302188665e-05,-94.44883728027344,-24.421594619750977,0.001123886089771986,-0.15874791145324707,-0.09474837779998779,1.283877372770803e-05
1351,37.681272673100466,7.7765960693359375,0.001505934284068644,9.827044486999512,6.446374989366177e-09,0.0031589141581207514,-4.190996696706861e-05,-94.42484283447266,-24.421659469604492,0.0011132049839943647,-0.15877185761928558,-0.0965515524148941,1.2882547707704362e-05
1352,37.69127267287695,5.936823844909668,-0.003586916020140052,9.833834648132324,9.334282680129036e-08,0.0021484296303242445,-0.00010003149509429932,-94.4002456665039,-24.421728134155273,0.0011059188982471824,-0.1588292270898819,-0.0977809801697731,1.3033223694947083e-05
1353,37.70127267265343,6.896996974945068,-0.02092716470360756,9.824851036071777,1.0846342775039375e-06,0.0013755657710134983,2.3686112399445847e-05,-94.37496948242188,-24.421798706054688,0.0011013030307367444,-0.1588156372308731,-0.09857328236103058,1.3631424735649489e-05
1354,37.711272672429914,5.216894626617432,0.03441287949681282,9.82886028289795,9.414883379577077e-07,0.0005439568194560707,5.953393701929599e-05,-94.34916687011719,-24.4218692779541,0.0010994720505550504,-0.1587815135717392,-0.09888064116239548,1.4112102689978201e-05
1355,37.721272672206396,6.177039623260498,-0.022926483303308487,9.817666053771973,-2.5737790565472096e-07,1.4234233276511077e-06,-2.081159436784219e-05,-94.32275390625,-24.42194366455078,0.0010994720505550504,-0.1587815135717392,-0.09888064116239548,1.4112102689978201e-05
1356,37.73127267198288,4.816931247711182,-0.006692643277347088,9.824624061584473,-1.0582573395367945e-06,-0.0006757720257155597,-4.0528182580601424e-05,-94.29586029052734,-24.42201805114746,0.0011017608921974897,-0.15881666541099548,-0.09848449379205704,1.3418866728898138e-05
1357,37.74127267175936,5.536696434020996,0.03530341386795044,9.813145637512207,8.259364108198497e-07,-0.0010540304938331246,-6.941405445104465e-06,-94.2684097290039,-24.422094345092773,0.0011053085327148438,-0.15882065892219543,-0.0978834331035614,1.3898879842599854e-05
1358,37.751272671535844,4.336722373962402,-0.02802266553044319,9.819457054138184,-3.7227472660106287e-08,-0.001575975213199854,-5.442173005576478e-07,-94.24052429199219,-24.42217254638672,0.0011105346493422985,-0.15882092714309692,-0.09698867797851562,1.3878100617148448e-05
1359,37.76127267131233,5.216414928436279,0.014416882768273354,9.810434341430664,-7.421635928039905e-07,-0.0018234940944239497,-8.9333643700229e-06,-94.21212768554688,-24.422250747680664,0.0011166762560606003,-0.1588260382413864,-0.09594365954399109,1.3461479284160305e-05
1360,37.77127267108881,3.9363207817077637,-0.02913063019514084,9.816863059997559,7.980694363141083e-07,-0.002222322626039386,-1.1449207704572473e-05,-94.18333435058594,-24.422330856323242,0.001124153146520257,-0.15883266925811768,-0.09466641396284103,1.3929663509770762e-05
1361,37.78127267086529,4.735904216766357,0.0330873504281044,9.806877136230469,1.690686559641108e-07,-0.0023618717677891254,-1.0169851520913653e-05,-94.15406799316406,-24.42241096496582,0.0011320876656100154,-0.15883848071098328,-0.0933140367269516,1.4036109860171564e-05
1362,37.791272670641774,3.695823907852173,-0.029795069247484207,9.814011573791504,1.0115943496202817e-06,-0.0026613192167133093,-1.0629654752847273e-05,-94.12444305419922,-24.422494888305664,0.0011410140432417393,-0.15884453058242798,-0.09179090708494186,1.462554337194888e-05
1363,37.80127267041826,4.575374126434326,0.03264486417174339,9.805094718933105,2.3367284995856608e-07,-0.0027153752744197845,-1.0228299288428389e-05,-94.09435272216797,-24.422576904296875,0.001150169293396175,-0.15885037183761597,-0.09023362398147583,1.4768740584258921e-05
1364,37.81127267019474,3.2152657508850098,-0.031125113368034363,9.811908721923828,1.4431834927108866e-07,-0.002935680327937007,-9.929442967404611e-06,-94.0639419555664,-24.42266273498535,0.0011600112775340676,-0.1588561087846756,-0.08854656666517258,1.4860291230434086e-05
1365,37.82127266997122,4.414853572845459,0.012202235870063305,9.803319931030273,2.0518268684099894e-07,-0.002923168009147048,-9.406111530552153e-06,-94.03309631347656,-24.422748565673828,0.0011698531452566385,-0.15886148810386658,-0.08687999844551086,1.4986103451519739e-05
1366,37.831272669747705,3.134511709213257,0.02865356206893921,9.810693740844727,8.848365382618795e-07,-0.0030837703961879015,-9.928401595971081e-06,-94.0019302368164,-24.422834396362305,0.0011802291264757514,-0.15886716544628143,-0.08512464165687561,1.550164415675681e-05
1367,37.84127266952419,4.17435884475708,-0.02846209704875946,9.799358367919922,1.2435002361144143e-07,-0.003019761759787798,-1.0404536624264438e-05,-93.9703598022461,-24.422922134399414,0.0011901473626494408,-0.15887318551540375,-0.08337611705064774,1.5581632396788336e-05
1368,37.85127266930067,2.8939640522003174,0.007988748140633106,9.812374114990234,-5.192901539885497e-07,-0.0031345735769718885,-1.050448918249458e-05,-93.93849182128906,-24.423009872436523,0.0012007140321657062,-0.15887917578220367,-0.08158660680055618,1.529275868961122e-05
1369,37.86127266907715,4.013701915740967,-0.008905000053346157,9.800602912902832,2.528312563754298e-07,-0.003030873369425535,-1.0832278348971158e-05,-93.9062271118164,-24.423099517822266,0.0012108993250876665,-0.1588854193687439,-0.07984490692615509,1.5446377801708877e-05
1370,37.871272668853635,2.8933563232421875,0.0079894308000803,9.808734893798828,2.749956706793455e-07,-0.0031112530268728733,-1.100939971365733e-05,-93.8736801147461,-24.42319107055664,0.001221351558342576,-0.1588916778564453,-0.0780690610408783,1.5612642528139986e-05
1371,37.88127266863012,3.693162202835083,-0.029791489243507385,9.80089282989502,1.0452257015458599e-07,-0.0029799926560372114,-1.0206436854787171e-05,-93.84075927734375,-24.423282623291016,0.0012313842307776213,-0.1588974893093109,-0.0763615071773529,1.5680398064432666e-05
1372,37.8912726684066,2.8127100467681885,0.027768054977059364,9.80825138092041,-2.866160855319322e-07,-0.0030350801534950733,-1.0223488970950712e-05,-93.80755615234375,-24.423376083374023,0.001241607591509819,-0.15890337526798248,-0.07461981475353241,1.5523890397162177e-05
1373,37.90127266818308,3.7725231647491455,-0.009569032117724419,9.799863815307617,-4.44454343551115e-07,-0.0028830175288021564,-9.42566020967206e-06,-93.77397918701172,-24.42346954345703,0.0012512969551607966,-0.15890878438949585,-0.07296007871627808,1.5276211343007162e-05
1374,37.911272667959565,2.6521973609924316,0.007324808742851019,9.808233261108398,-4.1197310451934754e-07,-0.0029202988371253014,-9.482699169893749e-06,-93.74014282226562,-24.42356300354004,0.0012611389392986894,-0.1589142233133316,-0.07130034267902374,1.5047022316139191e-05
1375,37.92127266773605,3.37196946144104,-0.010677870362997055,9.800183296203613,-4.7440934736187046e-07,-0.002755381865426898,-9.43782288231887e-06,-93.70596313476562,-24.42365837097168,0.0012704086257144809,-0.15891966223716736,-0.06971573829650879,1.4781818208575714e-05
1376,37.93127266751253,2.811596632003784,0.027769004926085472,9.807426452636719,2.3827637107842747e-07,-0.002780715236440301,-9.327165571448859e-06,-93.6715087890625,-24.42375373840332,0.001279754564166069,-0.15892495214939117,-0.06812430173158646,1.4924790775694419e-05
1377,37.94127266728901,3.3714969158172607,-0.03067719005048275,9.800365447998047,-4.7367933575515053e-07,-0.0026072959881275892,-9.266169399779756e-06,-93.63671875,-24.423852920532227,0.0012885284377261996,-0.15893028676509857,-0.06662849336862564,1.465962668589782e-05
1378,37.951272667065496,2.6511390209198,0.007325825281441212,9.807373046875,1.359017801405571e-06,-0.0026236900594085455,-7.989260666363407e-06,-93.6016616821289,-24.4239501953125,0.0012973403790965676,-0.1589348316192627,-0.06512585282325745,1.5443545635207556e-05
1379,37.96127266684198,3.37088680267334,0.009323298931121826,9.798248291015625,-1.9865228750859387e-07,-0.0024462684523314238,-7.753457794024143e-06,-93.56626892089844,-24.424047470092773,0.0013053512666374445,-0.15893930196762085,-0.06372565776109695,1.5334733689087443e-05
1380,37.97127266661846,2.570718288421631,-0.012895550578832626,9.81216812133789,6.29725377621071e-07,-0.0024584734346717596,-8.420186532021035e-06,-93.53062438964844,-24.42414665222168,0.0013138579670339823,-0.15894412994384766,-0.0623118132352829,1.5700839867349714e-05
1381,37.98127266639494,3.2904210090637207,0.009101958014070988,9.796202659606934,-2.486357857378607e-07,-0.0022796625271439552,-8.036191502469592e-06,-93.49464416503906,-24.42424774169922,0.001321334857493639,-0.15894874930381775,-0.061014074832201004,1.556334063934628e-05
1382,37.991272666171426,2.4902138710021973,0.006882730405777693,9.810079574584961,-7.72862620124215e-07,-0.002289223251864314,-7.424514024023665e-06,-93.45842742919922,-24.424346923828125,0.0013290786882862449,-0.15895302593708038,-0.05970267951488495,1.5125007848837413e-05
1383,38.00127266594791,3.2900500297546387,-0.01089756190776825,9.800544738769531,-2.4304850398948474e-07,-0.002112366957589984,-7.833199560991488e-06,-93.421875,-24.424449920654297,0.0013362121535465121,-0.15895748138427734,-0.05849373713135719,1.4990400813985616e-05
1384,38.01127266572439,2.4098522663116455,-0.013338804244995117,9.807976722717285,-1.2959640116605442e-07,-0.0021205286029726267,-7.343979177676374e-06,-93.38507843017578,-24.42455291748047,0.0013433838030323386,-0.1589616984128952,-0.05727796256542206,1.4920382454874925e-05
1385,38.021272665500874,3.2895395755767822,0.029102813452482224,9.800677299499512,8.223996701417491e-07,-0.0019460852490738034,-6.696564469166333e-06,-93.34795379638672,-24.42465591430664,0.0013499450869858265,-0.15896554291248322,-0.05615781247615814,1.539538243378047e-05
1386,38.031272665277356,2.5694682598114014,-0.01289447769522667,9.807916641235352,-5.0191736988836055e-08,-0.00195376668125391,-6.791152827645419e-06,-93.31058502197266,-24.424760818481445,0.0013565444387495518,-0.1589694321155548,-0.055037662386894226,1.5370402252301574e-05
1387,38.04127266505384,2.9692306518554688,0.00821543950587511,9.801102638244629,2.8151536213272266e-08,-0.001782562816515565,-6.017437499394873e-06,-93.27291107177734,-24.424861907958984,0.0013625335413962603,-0.1589728742837906,-0.05401996150612831,1.5389805412269197e-05
1388,38.05127266483032,2.4890623092651367,0.006883889902383089,9.808083534240723,6.615576353397046e-07,-0.0017953268252313137,-7.712428669037763e-06,-93.2349853515625,-24.42496681213379,0.0013685607118532062,-0.15897725522518158,-0.052988603711128235,1.5772977349115536e-05
1389,38.061272664606804,3.1290054321289062,-0.03133995831012726,9.802202224731445,-2.78654766816544e-07,-0.001631811261177063,-7.560850008303532e-06,-93.1967544555664,-24.42507553100586,0.0013740920694544911,-0.158981591463089,-0.05205287039279938,1.561729186505545e-05
1390,38.07127266438329,2.568739175796509,0.007106190547347069,9.808096885681152,-7.129604995270711e-08,-0.0016522747464478016,-6.514550022984622e-06,-93.15827178955078,-24.425182342529297,0.0013796614948660135,-0.15898530185222626,-0.05110347270965576,1.5579798855469562e-05
1391,38.08127266415977,2.88853120803833,0.0279943086206913,9.802129745483398,7.923323437353247e-07,-0.0014974975492805243,-6.240733910090057e-06,-93.11949157714844,-24.425289154052734,0.0013846969231963158,-0.15898889303207397,-0.050249699503183365,1.6036947272368707e-05
1392,38.09127266393625,2.4885008335113525,-0.013115310110151768,9.808621406555176,6.418325426693627e-08,-0.001520901103504002,-6.7251880864205305e-06,-93.0804672241211,-24.425397872924805,0.0013898086035624146,-0.158992737531662,-0.04938226565718651,1.607707054063212e-05
1393,38.101272663712734,3.128357410430908,-0.011339167132973671,9.802393913269043,-1.515776659744006e-07,-0.0013737070839852095,-6.276874955801759e-06,-93.04113006591797,-24.425506591796875,0.0013944243546575308,-0.1589963287115097,-0.04858996346592903,1.5993280612747185e-05
1394,38.11127266348922,2.248173952102661,0.0062188818119466305,9.808890342712402,-2.003213950274585e-07,-0.0013980712974444032,-6.637746537307976e-06,-93.00157165527344,-24.425617218017578,0.0013991164742037654,-0.15900015830993652,-0.047790832817554474,1.5881711078691296e-05
1395,38.1212726632657,3.0480411052703857,0.008439105935394764,9.802924156188965,-1.4992332353358506e-07,-0.0012592271668836474,-5.935986791882897e-06,-92.96170806884766,-24.42572784423828,0.0014033508487045765,-0.15900357067584991,-0.04706000164151192,1.5798636013641953e-05
1396,38.13127266304218,2.4079782962799072,-0.01333674881607294,9.808818817138672,4.124160923879572e-08,-0.001285131904296577,-6.101294729887741e-06,-92.9216079711914,-24.425838470458984,0.0014076613588258624,-0.15900708734989166,-0.04632917046546936,1.5825105947442353e-05
1397,38.141272662818665,2.967804431915283,0.008217436261475086,9.803443908691406,-2.7148647063768294e-07,-0.0011529893381521106,-6.093914180382853e-06,-92.88121032714844,-24.42595100402832,0.0014115524245426059,-0.1590106040239334,-0.045673470944166183,1.5672363588237204e-05
1398,38.15127266259515,2.247694492340088,0.00621945271268487,9.809000968933105,6.327277333184611e-07,-0.0011788905831053853,-6.130749625299359e-06,-92.84058380126953,-24.426063537597656,0.0014155196258798242,-0.15901409089565277,-0.044990453869104385,1.603765667823609e-05
1399,38.16127266237163,3.0476949214935303,-0.03155990317463875,9.803064346313477,6.095683033890964e-07,-0.0010547371348366141,-5.853134553035488e-06,-92.7996597290039,-24.426177978515625,0.0014190291985869408,-0.15901747345924377,-0.04438939690589905,1.638953654037323e-05
1400,38.17127266214811,2.2474312782287598,0.026219766587018967,9.80981159210205,5.789650003862334e-07,-0.0010799861047416925,-6.1879463828518055e-06,-92.75850677490234,-24.426294326782227,0.0014226912753656507,-0.1590210497379303,-0.04377467930316925,1.672398684604559e-05
1401,38.181272661924595,2.887385129928589,0.007996238768100739,9.803627967834473,-1.1166491020730973e-07,-0.0009632809087634087,-4.591216111293761e-06,-92.71705627441406,-24.426408767700195,0.0014259337913244963,-0.15902359783649445,-0.04322143644094467,1.666201751504559e-05
1402,38.19127266170108,2.5673484802246094,-0.012891722843050957,9.80847454071045,-1.659415431731759e-07,-0.0009870274225249887,-4.9705540732247755e-06,-92.67536926269531,-24.426523208618164,0.0014292144915089011,-0.15902648866176605,-0.042654529213905334,1.6569072613492608e-05
1403,38.20127266147756,2.6472043991088867,0.007330374792218208,9.80500316619873,-5.29783967806452e-08,-0.0008816928020678461,-5.301053988659987e-06,-92.63340759277344,-24.426639556884766,0.0014321899507194757,-0.1590294986963272,-0.042155925184488297,1.6540960132260807e-05
1404,38.21127266125404,2.4871745109558105,-0.0131135368719697,9.808577537536621,-3.002205346547271e-07,-0.0008996343240141869,-5.362981937651057e-06,-92.59120178222656,-24.4267578125,0.0014352034777402878,-0.15903256833553314,-0.04163683205842972,1.6371190213249065e-05
1405,38.221272661030525,2.647036552429199,0.0073305233381688595,9.805429458618164,-8.770830390858464e-07,-0.0008093574433587492,-4.610358701029327e-06,-92.5487289428711,-24.4268741607666,0.0014379500644281507,-0.15903520584106445,-0.04117237776517868,1.587056067364756e-05
1406,38.23127266080701,2.4869585037231445,0.0068864477798342705,9.808236122131348,-1.0284398967996822e-06,-0.0008175435941666365,-5.3680460041505285e-06,-92.5060043334961,-24.42699432373047,0.0014406966511160135,-0.15903829038143158,-0.04070109501481056,1.528350003354717e-05
1407,38.24127266058349,2.806938409805298,-0.0122251370921731,9.805357933044434,-2.3340382426795259e-07,-0.0007459258195012808,-4.450063443073304e-06,-92.46300506591797,-24.427114486694336,0.0014431761810556054,-0.15904083847999573,-0.040277622640132904,1.5151573279581498e-05
1408,38.25127266035997,2.3268144130706787,0.006442485377192497,9.808767318725586,-1.5889591509221646e-07,-0.0007440269691869617,-3.909859970008256e-06,-92.4197769165039,-24.42723274230957,0.0014456938952207565,-0.1590430736541748,-0.039854150265455246,1.5062116290209815e-05
1409,38.261272660136456,2.7267978191375732,-0.01244692038744688,9.806219100952148,5.654071628669044e-07,-0.0006889653741382062,-4.869884833169635e-06,-92.37626647949219,-24.42735481262207,0.0014480209210887551,-0.15904587507247925,-0.03945117071270943,1.5387984603876248e-05
1410,38.27127265991294,2.486677408218384,0.00688687339425087,9.807543754577637,-2.020914422473652e-07,-0.0006780487601645291,-4.006637027487159e-06,-92.33251953125,-24.42747688293457,0.0014502715785056353,-0.1590481698513031,-0.03906184807419777,1.52737684402382e-05
1411,38.28127265968942,2.6466147899627686,0.007331186905503273,9.807453155517578,7.381868272204883e-07,-0.0006369058974087238,-3.68913788406644e-06,-92.28850555419922,-24.42759895324707,0.0014524459838867188,-0.15905022621154785,-0.03869985044002533,1.569816049595829e-05
1412,38.2912726594659,2.326554775238037,0.006442953832447529,9.807299613952637,-1.5830471511435462e-07,-0.0006200812640599906,-3.6134385936748004e-06,-92.24425506591797,-24.42772102355957,0.0014545058365911245,-0.15905232727527618,-0.03834468126296997,1.5608837202307768e-05
1413,38.301272659242386,2.646552085876465,-0.012668571434915066,9.807485580444336,-2.482012746440887e-07,-0.0005881030228920281,-4.07725065088016e-06,-92.19974517822266,-24.427846908569336,0.0014564895536750555,-0.15905465185642242,-0.03801000118255615,1.54681911226362e-05
1414,38.31127265901887,2.486496925354004,-0.013112671673297882,9.807605743408203,-1.5075549697485258e-08,-0.0005680870963260531,-2.6329230422561523e-06,-92.15497589111328,-24.42797088623047,0.001458396902307868,-0.159056156873703,-0.03768215328454971,1.5460534996236674e-05
1415,38.32127265879535,2.6463310718536377,0.027331486344337463,9.807513236999512,1.018922262119304e-06,-0.0005426050047390163,-1.744082624099974e-06,-92.1099624633789,-24.4280948638916,0.001460227882489562,-0.15905717015266418,-0.037367962300777435,1.6045001757447608e-05
1416,38.331272658571834,2.326394557952881,-0.013556641526520252,9.807733535766602,-3.3211644989705746e-08,-0.0005216030403971672,-2.616941628730274e-06,-92.06470489501953,-24.42822265625,0.0014619827270507812,-0.15905863046646118,-0.037081096321344376,1.602695010660682e-05
1417,38.341272658348316,2.5663442611694336,-0.01289023645222187,9.807592391967773,1.024411290018179e-06,-0.0004990660818293691,-1.5967875697242562e-06,-92.0191879272461,-24.428348541259766,0.001463661203160882,-0.1590595841407776,-0.03679422661662102,1.661447822698392e-05
1418,38.3512726581248,2.566185235977173,0.027109665796160698,9.807604789733887,5.9502909266484494e-08,-0.0004793784173671156,-1.9961762518505566e-06,-91.97342681884766,-24.428476333618164,0.0014652633108198643,-0.15906073153018951,-0.03651418909430504,1.664932096900884e-05
1419,38.36127265790128,2.406252861022949,-0.013334312476217747,9.808096885681152,9.124937605520245e-08,-0.00045915343798696995,-1.6489703966726665e-06,-91.92740631103516,-24.42860221862793,0.0014668273506686091,-0.15906165540218353,-0.0362546406686306,1.6702202628948726e-05
1420,38.371272657677764,2.5661518573760986,0.007109796162694693,9.807247161865234,-9.831115903580212e-07,-0.0004392843402456492,-3.873028163070558e-06,-91.88114929199219,-24.42873191833496,0.0014682769542559981,-0.15906386077404022,-0.03599509596824646,1.614032589714043e-05
1421,38.38127265745425,2.406167507171631,-0.013334175571799278,9.808119773864746,6.114635198173346e-07,-0.0004205341683700681,-3.323205419292208e-06,-91.83464813232422,-24.428861618041992,0.001469688373617828,-0.15906576812267303,-0.03575603663921356,1.6491854694322683e-05
1422,38.39127265723073,2.5660717487335205,0.0071099307388067245,9.808029174804688,-9.107720302381495e-07,-0.0004024531808681786,-3.0519115625793347e-06,-91.78788757324219,-24.428991317749023,0.0014710617251694202,-0.1590675264596939,-0.03552381321787834,1.5971099855960347e-05
1423,38.40127265700721,2.406034469604492,0.006665776018053293,9.807755470275879,-2.9283125968504464e-07,-0.00038463130476884544,-3.0906810479791602e-06,-91.74088287353516,-24.429121017456055,0.0014723587082698941,-0.15906929969787598,-0.03530524671077728,1.5804418580955826e-05
1424,38.411272656783694,2.565997838973999,0.007110029924660921,9.807668685913086,-3.9464049450543826e-07,-0.0003687579883262515,-3.41782492796483e-06,-91.69363403320312,-24.42925262451172,0.0014735793229192495,-0.15907125174999237,-0.035093508660793304,1.557950599817559e-05
1425,38.42127265656018,2.4060189723968506,-0.013334061950445175,9.808156967163086,-3.760405888897367e-07,-0.00035319302696734667,-3.1992508411349263e-06,-91.64613342285156,-24.429384231567383,0.0014747619861736894,-0.1590730994939804,-0.034888602793216705,1.5365165381808765e-05
1426,38.43127265633666,2.4859304428100586,0.006888010539114475,9.808114051818848,-4.019643142783025e-07,-0.00033669249387457967,-3.272886260674568e-06,-91.598388671875,-24.429515838623047,0.0014759063487872481,-0.15907497704029083,-0.034697357565164566,1.5136001820792444e-05
1427,38.44127265611314,2.4859542846679688,-0.013111780397593975,9.80774211883545,4.059343439166696e-07,-0.0003218694473616779,-3.683860086312052e-06,-91.55039978027344,-24.429651260375977,0.0014769744593650103,-0.15907707810401917,-0.034512944519519806,1.536985655548051e-05
1428,38.451272655889625,2.4059252738952637,-0.013333776034414768,9.808177947998047,5.707457262360549e-07,-0.00030746424454264343,-2.612458274597884e-06,-91.50216674804688,-24.429784774780273,0.0014780043857172132,-0.15907858312129974,-0.03434218838810921,1.5697782146162353e-05
1429,38.46127265566611,2.5657846927642822,0.027110423892736435,9.80809211730957,5.4513282066182e-07,-0.0002932865172624588,-2.756201638476341e-06,-91.45368194580078,-24.42991828918457,0.0014789962442591786,-0.1590801328420639,-0.03417143598198891,1.6011052139219828e-05
1430,38.47127265544259,2.4058125019073486,0.0066662998870015144,9.80819034576416,-4.5800618408975424e-07,-0.0002805108961183578,-3.223023213649867e-06,-91.40494537353516,-24.4300537109375,0.0014799499185755849,-0.15908201038837433,-0.03400750830769539,1.5749743397464044e-05
1431,38.48127265521907,2.4858434200286865,-0.013111384585499763,9.808152198791504,4.1043281839847623e-07,-0.00026826621615327895,-3.141441766274511e-06,-91.35597229003906,-24.43018913269043,0.001480865408666432,-0.1590837985277176,-0.03386407718062401,1.598596827534493e-05
1432,38.491272654995555,2.4058163166046143,-0.01333348173648119,9.807823181152344,-5.53748861875647e-07,-0.00025596522027626634,-3.3593612442928134e-06,-91.30675506591797,-24.430326461791992,0.0014817046467214823,-0.1590857207775116,-0.03370698168873787,1.566982246004045e-05
1433,38.50127265477204,2.4856834411621094,0.026888513937592506,9.808545112609863,-4.986617909708002e-07,-0.00024409175966866314,-2.9846080451534363e-06,-91.25729370117188,-24.430463790893555,0.0014825438847765326,-0.1590874046087265,-0.03357720747590065,1.5385105143650435e-05
1434,38.51127265454852,2.4858250617980957,-0.03311122953891754,9.807788848876953,-4.7630052790736954e-07,-0.0002331290888832882,-2.732912435021717e-06,-91.20758819580078,-24.43060302734375,0.0014833068707957864,-0.15908898413181305,-0.03343377262353897,1.5113122572074644e-05
1435,38.521272654325,2.32563853263855,0.026444287970662117,9.808650016784668,-3.8646339817205444e-07,-0.0002224911586381495,-2.1481685053004185e-06,-91.15763092041016,-24.430742263793945,0.0014840697403997183,-0.15909019112586975,-0.03331083059310913,1.4892412764311302e-05
1436,38.531272654101485,2.5657269954681396,-0.012889082543551922,9.80775260925293,3.2061319643617026e-07,-0.00021265151735860854,-1.88208127838152e-06,-91.10743713378906,-24.43088150024414,0.0014847564743831754,-0.1590913087129593,-0.03318788856267929,1.507673914602492e-05
1437,38.54127265387797,2.326003313064575,0.026444651186466217,10.518194198608398,5.335571700015862e-07,-0.0002383680548518896,-1.962187297976925e-06,-91.0570068359375,-24.431020736694336,0.001556396484375,-0.15909241139888763,-0.03305128216743469,1.5383095160359517e-05
1438,38.55127265365445,2.4856650829315186,-0.033111054450273514,9.681925773620605,-4.497270538195153e-07,-0.00022433223784901202,-2.453776460242807e-06,-91.0063247680664,-24.431161880493164,0.0016153716715052724,-0.15909381210803986,-0.03292151167988777,1.5126234757190105e-05
1439,38.56127265343093,2.5655641555786133,0.0071109323762357235,9.700190544128418,4.935347988066496e-07,-0.00019423077173996717,-1.909109641928808e-06,-90.95539093017578,-24.431303024291992,0.0016635131323710084,-0.15909381210803986,-0.03292151167988777,1.5126234757190105e-05
1440,38.571272653207416,2.405536651611328,0.006666876841336489,9.717839241027832,4.574724528083607e-07,-0.0002019939129240811,-3.142873993056128e-06,-90.90421295166016,-24.43144416809082,0.0017025755951181054,-0.15909668803215027,-0.032696112990379333,1.567278195580002e-05
1441,38.5812726529839,2.485598564147949,-0.013110901229083538,9.729618072509766,-5.243683744993177e-07,-0.00015863290173001587,1.8470389306912693e-07,-90.85279083251953,-24.431589126586914,0.0017337417230010033,-0.15909668803215027,-0.032696112990379333,1.567278195580002e-05
1442,38.59127265276038,2.245518922805786,0.006222913041710854,9.745024681091309,5.461906766868196e-07,-0.0001975294726435095,-1.3824939742335118e-05,-90.80113983154297,-24.431732177734375,0.0017585372552275658,-0.15910454094409943,-0.032498039305210114,1.5689724023104645e-05
1443,38.60127265253686,1.2054847478866577,0.0033345844130963087,9.763927459716797,-2.1223613089205173e-07,-0.0005059842951595783,2.8373646273394115e-05,-90.74937438964844,-24.43187713623047,0.0017787932883948088,-0.15908826887607574,-0.032211169600486755,1.5558931409032084e-05
1444,38.611272652313346,0.885403573513031,0.002446340397000313,9.777088165283203,-4.898482757198508e-07,-0.0009030033834278584,-3.568129977793433e-05,-90.69751739501953,-24.43202018737793,0.0017958068056032062,-0.1591087132692337,-0.0316852442920208,1.5289677321561612e-05
1445,38.62127265208983,-4.95486307144165,0.006227725651115179,9.832828521728516,-5.246320142759942e-07,-0.0026721004396677017,-2.0387073163874447e-05,-90.64615631103516,-24.43216323852539,0.0018148422241210938,-0.1591203808784485,-0.030148454010486603,1.4995382116467226e-05
1446,38.63127265186631,1.4449617862701416,-0.01599819026887417,9.763497352600098,5.635484399135748e-07,-0.0023234121035784483,4.5684768679166154e-07,-90.59465789794922,-24.43230628967285,0.0018292998429387808,-0.15912021696567535,-0.02882339619100094,1.531813722976949e-05
1447,38.641272651642794,-2.4754550457000732,0.033115021884441376,9.808886528015137,-3.193361237663339e-07,-0.0029271431267261505,-1.4392844605026767e-06,-90.54339599609375,-24.43244743347168,0.001843528705649078,-0.15912102162837982,-0.027143171057105064,1.5135581634240225e-05
1448,38.651272651419276,1.844497799873352,-0.03488723933696747,9.763394355773926,4.6535186015717045e-07,-0.0023512563202530146,1.7766446944733616e-06,-90.49195861816406,-24.432592391967773,0.0018531798850744963,-0.15911999344825745,-0.0257839635014534,1.5401745258714072e-05
1449,38.66127265119576,-2.7959158420562744,0.012226666323840618,9.818044662475586,1.5185240727078053e-06,-0.0029722244944423437,5.234973059486947e-07,-90.4407958984375,-24.4327335357666,0.00186351768206805,-0.15911966562271118,-0.024096906185150146,1.627166238904465e-05
1450,38.67127265097224,2.1638848781585693,0.006001378875225782,9.763742446899414,-4.018646677650395e-07,-0.0021832026541233063,8.866115877026459e-07,-90.38941955566406,-24.43287467956543,0.0018693160964176059,-0.15911921858787537,-0.02284698188304901,1.604120734555181e-05
1451,38.681272650748724,-2.316340446472168,-0.0064405230805277824,9.81849193572998,-2.104466148011852e-06,-0.0026896290946751833,-3.3042963423213223e-06,-90.3382797241211,-24.43301773071289,0.0018758773803710938,-0.1591210961341858,-0.021303359419107437,1.4836171430943068e-05
1452,38.69127265052521,2.3234448432922363,0.006445759907364845,9.771032333374023,1.2975447134522256e-06,-0.0018348488956689835,-1.5754984588056686e-06,-90.28690338134766,-24.43315887451172,0.0018786239670589566,-0.1591220200061798,-0.02025151066482067,1.557993709866423e-05
1453,38.70127265030169,-2.156805992126465,0.01400374062359333,9.819485664367676,-5.702569865206897e-07,-0.0023202192969620228,-2.097743390550022e-06,-90.2357406616211,-24.433300018310547,0.0018822478596121073,-0.15912321209907532,-0.018912792205810547,1.5253619494615123e-05
1454,38.71127265007817,2.6431899070739746,-0.03266531601548195,9.774069786071777,1.568076157809628e-07,-0.001431080512702465,-1.8673200656849076e-06,-90.18431091308594,-24.43344497680664,0.0018823622958734632,-0.15912428498268127,-0.01810683123767376,1.5343808627221733e-05
1455,38.721272649854654,-1.6771334409713745,0.01533675380051136,9.822707176208496,2.8263642093406816e-07,-0.0019134387839585543,-3.90758941648528e-06,-90.13306427001953,-24.43358612060547,0.0018836974631994963,-0.15912649035453796,-0.017007170245051384,1.550643537484575e-05
1456,38.73127264963114,2.7228481769561768,-0.012443161569535732,9.776412963867188,-1.4361585272126831e-06,-0.0010196090443059802,-2.1925688997725956e-06,-90.08152770996094,-24.43372917175293,0.0018817519303411245,-0.15912775695323944,-0.016426604241132736,1.468394748371793e-05
1457,38.74127264940762,-1.5173827409744263,0.015780840069055557,9.825291633605957,-5.509995730790251e-07,-0.0015178743051365018,-3.3015660392266e-06,-90.0301513671875,-24.43387222290039,0.001881294185295701,-0.15912966430187225,-0.01555234007537365,1.4368778465723153e-05
1458,38.7512726491841,2.962636947631836,-0.011776488274335861,9.778697967529297,3.311338900857663e-07,-0.0006336215883493423,-1.486378437220992e-06,-89.97848510742188,-24.43401527404785,0.0018777847290039062,-0.15913048386573792,-0.015190339647233486,1.4558724615199026e-05
1459,38.761272648960585,-1.277504324913025,-0.0035526081919670105,9.827491760253906,-5.719180080632214e-07,-0.0011528130853548646,-3.49057722814905e-06,-89.92694091796875,-24.434160232543945,0.0018759918166324496,-0.1591324806213379,-0.014520981349050999,1.423157209501369e-05
1460,38.77127264873707,3.202439546585083,0.008890156634151936,9.780206680297852,8.577593462177902e-07,-0.0002858951920643449,-6.450570708693704e-07,-89.87507629394531,-24.434303283691406,0.001871299697086215,-0.15913285315036774,-0.014363886788487434,1.4723117601533886e-05
1461,38.78127264851355,-1.3576127290725708,-0.0037748240865767,9.829402923583984,-7.1837473569758e-07,-0.0008294364088214934,-2.188720145568368e-06,-89.82334899902344,-24.4344482421875,0.001868514926172793,-0.1591341346502304,-0.013885773718357086,1.4311831364466343e-05
1462,38.79127264829003,3.522357225418091,0.009778930805623531,9.782063484191895,-6.857999323983677e-07,1.552682078909129e-05,-4.210903625789797e-07,-89.77127075195312,-24.43459129333496,0.0018630217527970672,-0.1591341346502304,-0.013885773718357086,1.4311831364466343e-05
1463,38.801272648066515,-0.9576655030250549,-0.0026637795381247997,9.83006477355957,1.765252704899467e-06,-0.000550790864508599,-2.3662889816478128e-06,-89.71928405761719,-24.434736251831055,0.0018595122965052724,-0.15913571417331696,-0.013585245236754417,1.4930692486814223e-05
1464,38.811272647843,3.5223886966705322,-0.01022078562527895,9.783598899841309,2.3831292139675497e-07,0.000271784228971228,5.912875167268794e-07,-89.66695404052734,-24.43488311767578,0.0018534469418227673,-0.15913540124893188,-0.013742339797317982,1.5067153071868233e-05
1465,38.82127264761948,-0.8777256608009338,0.0175583865493536,9.831950187683105,3.365979637237615e-07,-0.000316882214974612,-1.479874981669127e-06,-89.61470794677734,-24.435026168823242,0.0018495558761060238,-0.15913626551628113,-0.013557924889028072,1.526021515019238e-05
1466,38.83127264739596,3.7624597549438477,-0.02955402247607708,9.783916473388672,-3.552428395892093e-08,0.00048358592903241515,-4.210008057725645e-07,-89.56208038330078,-24.43517303466797,0.001843147212639451,-0.15913647413253784,-0.013837962411344051,1.523991613794351e-05
1467,38.841272647172445,-0.7176780700683594,0.018002772703766823,9.832300186157227,2.6211461090497323e-07,-0.0001230931666214019,-1.2212691444801749e-06,-89.50952911376953,-24.435319900512695,0.0018389510223641992,-0.15913647413253784,-0.013837962411344051,1.523991613794351e-05
1468,38.85127264694893,3.842399835586548,0.010667991824448109,9.785400390625,-6.066472906240961e-07,0.0006541229085996747,1.015918201119348e-06,-89.45658874511719,-24.43546485900879,0.0018323897384107113,-0.1591365784406662,-0.01413849089294672,1.5042552149679977e-05
1469,38.86127264672541,-0.6375711560249329,-0.0017749888356775045,9.832664489746094,-1.6431529274996137e-06,3.331781044835225e-05,-2.200043354605441e-06,-89.40371704101562,-24.435611724853516,0.0018280792282894254,-0.1591365784406662,-0.01413849089294672,1.5042552149679977e-05
1470,38.87127264650189,4.002590656280518,-0.028887445107102394,9.785329818725586,7.780109285704384e-07,0.0007891030400060117,-2.85910886077545e-07,-89.35044860839844,-24.435760498046875,0.0018214035080745816,-0.15913799405097961,-0.014609773643314838,1.454720495530637e-05
1471,38.881272646278376,-0.4775460958480835,0.01866922900080681,9.83415412902832,1.8162916148867225e-07,0.0001544301921967417,4.0602685658086557e-07,-89.29722595214844,-24.435909271240234,0.0018171309493482113,-0.15913799405097961,-0.014609773643314838,1.454720495530637e-05
1472,38.89127264605486,4.00263786315918,-0.008887749165296555,9.785667419433594,-1.6223814327531727e-06,0.0008910930482670665,1.780107595550362e-06,-89.24359893798828,-24.436059951782227,0.001810531597584486,-0.1591367870569229,-0.015210830606520176,1.3721390132559463e-05
1473,38.90127264583134,-0.397418737411499,0.018891219049692154,9.833759307861328,-6.715935683132557e-07,0.0002476534864399582,-2.0688285076175816e-06,-89.19001770019531,-24.436208724975586,0.001806297223083675,-0.15913794934749603,-0.01535426452755928,1.3336908523342572e-05
1474,38.91127264560782,4.242755889892578,-0.008221202529966831,9.786697387695312,-3.2814704287176255e-09,0.0009659312781877816,1.489319629399688e-06,-89.13600158691406,-24.436357498168945,0.001799850375391543,-0.1591370850801468,-0.01590750925242901,1.3334794857655652e-05
1475,38.921272645384306,-0.3972932994365692,0.018891138955950737,9.833765029907227,-9.791815500648227e-07,0.00031481325277127326,2.160708390874788e-06,-89.08203887939453,-24.436506271362305,0.0017957687377929688,-0.1591358482837677,-0.016085093840956688,1.2773421985912137e-05
1476,38.93127264516079,4.242941379547119,-0.028221370652318,9.786641120910645,2.7601089414019953e-08,0.0010173657210543752,1.4365820106831961e-06,-89.02764129638672,-24.436656951904297,0.00178947439417243,-0.15913502871990204,-0.016665659844875336,1.2788995263690595e-05
1477,38.94127264493727,-0.15710271894931793,-0.0004421516496222466,9.833699226379395,4.6934795250308525e-07,0.0003614180313888937,-2.852253828677931e-06,-88.9732666015625,-24.43680763244629,0.0017855452606454492,-0.15913668274879456,-0.016877396032214165,1.3058386684861034e-05
1478,38.951272644713754,4.162914276123047,0.03155631944537163,9.787367820739746,-2.527658971018809e-08,0.001050301711075008,9.696509550849441e-07,-88.91847229003906,-24.436960220336914,0.001779479905962944,-0.1591360867023468,-0.017478452995419502,1.3043742001173086e-05
1479,38.961272644490236,0.0030939357820898294,-0.01999770663678646,9.833270072937012,-2.2992979609171016e-07,0.0003905038465745747,1.8082240558214835e-06,-88.86368560791016,-24.437110900878906,0.0017757415771484375,-0.15913508832454681,-0.01770384982228279,1.2911687917949166e-05
1480,38.97127264426672,4.323167324066162,-0.007999265566468239,9.787636756896973,-1.5257153052061767e-07,0.001065261079929769,4.782762630384241e-07,-88.80846405029297,-24.437265396118164,0.0017699050949886441,-0.15913480520248413,-0.01831173524260521,1.2824181794712786e-05
1481,38.9812726440432,-0.07681921869516373,-0.00022019688913132995,9.834059715270996,-2.0436987142602447e-06,0.0004047288093715906,-4.15258318753331e-06,-88.75325012207031,-24.43741798400879,0.0017664717743173242,-0.15913718938827515,-0.01853030174970627,1.1653988622128963e-05
1482,38.991272643819684,4.243255138397217,0.011778493411839008,9.787217140197754,3.5222359429099015e-07,0.00106742512434721,-4.788113301401609e-07,-88.6976089477539,-24.437572479248047,0.0017609023489058018,-0.15913745760917664,-0.019151849672198296,1.1855891898449045e-05
1483,39.00127264359617,0.08332760632038116,0.00022411327518057078,9.833244323730469,-1.1949827012358583e-06,0.0004063840606249869,1.8391623370916932e-06,-88.64196014404297,-24.437726974487305,0.0017576598329469562,-0.15913642942905426,-0.019390905275940895,1.117085776058957e-05
1484,39.01127264337265,4.563453674316406,-0.007332846987992525,9.787808418273926,1.0605631217686096e-07,0.001058249152265489,3.573198057438276e-07,-88.58586120605469,-24.437883377075195,0.0017523574642837048,-0.15913617610931396,-0.019991962239146233,1.1231551070522983e-05
1485,39.02127264314913,-0.15652960538864136,-0.000442434917204082,9.833327293395996,3.731649940164061e-07,0.0003968987730331719,-4.963143055647379e-06,-88.5297622680664,-24.438039779663086,0.0017493820050731301,-0.159139022231102,-0.02021735906600952,1.1446355529187713e-05
1486,39.031272642925614,4.483539581298828,0.012445148080587387,9.787771224975586,2.1989986009884888e-07,0.001040192088112235,2.775570351332135e-07,-88.47322845458984,-24.438196182250977,0.001744346576742828,-0.15913885831832886,-0.02081841602921486,1.1572289622563403e-05
1487,39.0412726427021,0.16360978782176971,0.00044642409193329513,9.833209037780762,4.348266031684034e-07,0.0003805224841926247,2.302128450537566e-06,-88.41667938232422,-24.438350677490234,0.0017416381742805243,-0.159137561917305,-0.02103698067367077,1.1820946383522823e-05
1488,39.05127264247858,4.4037322998046875,-0.007776915095746517,9.788122177124023,9.513738632449531e-07,0.0010143483523279428,-5.573369890043978e-07,-88.35968780517578,-24.43851089477539,0.0017369078705087304,-0.15913785994052887,-0.021617546677589417,1.2366164810373448e-05
1489,39.06127264225506,0.08379782736301422,-0.019775396212935448,9.832476615905762,2.0416964616742916e-06,0.0003592558205127716,-5.759529358329019e-06,-88.30268096923828,-24.438669204711914,0.0017344283405691385,-0.1591411530971527,-0.021808791905641556,1.3537217455450445e-05
1490,39.071272642031545,4.723750114440918,0.03311234340071678,9.788318634033203,1.5005294926595525e-06,0.000984709244221449,-8.013736874090682e-08,-88.2452163696289,-24.438827514648438,0.0017299652099609375,-0.1591411978006363,-0.022382529452443123,1.4396982805919833e-05
1491,39.08127264180803,0.003874478628858924,2.555929768277565e-06,9.834033012390137,8.641723070468288e-07,0.00033230939880013466,2.4693003979336936e-06,-88.187744140625,-24.43898582458496,0.0017279052408412099,-0.1591397523880005,-0.022573774680495262,1.4891547834849916e-05
1492,39.09127264158451,4.484041213989258,-0.027554139494895935,9.784541130065918,-1.0797280083352234e-06,0.0009505547350272536,-5.79040317916224e-07,-88.12982177734375,-24.43914794921875,0.0017234801780432463,-0.15914011001586914,-0.02311335876584053,1.4273045053414535e-05
1493,39.10127264136099,0.1639990359544754,0.0004468198458198458,9.836255073547363,-4.6731094016649877e-07,0.00030188594246283174,-7.94485276855994e-06,-88.07188415527344,-24.439308166503906,0.0017216872656717896,-0.15914465487003326,-0.02329777367413044,1.4007136996951886e-05
1494,39.111272641137475,4.72399377822876,0.03311251103878021,9.784387588500977,-1.2066687986589386e-06,0.0009133390849456191,-1.406160890837782e-06,-88.01347351074219,-24.439470291137695,0.001717529259622097,-0.15914545953273773,-0.023816868662834167,1.3316094737092499e-05
1495,39.12127264091396,0.164226233959198,-0.03955317288637161,9.83625316619873,-2.709678881274158e-07,0.00026934940251521766,2.7022138056054246e-06,-87.9550552368164,-24.439632415771484,0.0017160034039989114,-0.15914392471313477,-0.023973962292075157,1.3160198250261601e-05
1496,39.13127264069044,4.404162883758545,0.01222369447350502,9.784086227416992,3.6441556972022227e-07,0.0008753782021813095,-1.155464133262285e-06,-87.89618682861328,-24.439796447753906,0.0017120742704719305,-0.1591445803642273,-0.024472566321492195,1.336927198281046e-05
1497,39.14127264046692,0.32416799664497375,0.020891278982162476,9.836185455322266,2.066822389679146e-06,0.00023633474484086037,-8.439034900220577e-06,-87.83729553222656,-24.439960479736328,0.0017107772873714566,-0.1591494083404541,-0.024609170854091644,1.4555545021721628e-05
1498,39.151272640243405,4.644377708435059,-0.02710890956223011,9.783933639526367,-8.63959428443195e-08,0.0008370543364435434,-6.94910795573378e-07,-87.77793884277344,-24.440126419067383,0.0017070770263671875,-0.15914981067180634,-0.025087283924221992,1.4506220395560376e-05
1499,39.16127264001989,0.08432633429765701,0.00022477348102256656,9.835904121398926,7.265562089742161e-07,0.00020222847524564713,3.5986952298117103e-06,-87.71855926513672,-24.440292358398438,0.0017059707315638661,-0.15914775431156158,-0.025203397497534752,1.4921597539796494e-05
1500,39.17127263979637,4.724364280700684,0.013113122433423996,9.784235000610352,8.192354243874433e-07,0.0007983405375853181,2.1445215736548562e-07,-87.65872955322266,-24.440458297729492,0.0017024993430823088,-0.15914763510227203,-0.02566101960837841,1.5390927728731185e-05
1501,39.18127263957285,0.08440472185611725,0.00022485379304271191,9.83552074432373,-7.174521670094691e-07,0.0001678660191828385,-7.025118975434452e-06,-87.598876953125,-24.440624237060547,0.0017015838529914618,-0.15914763510227203,-0.02566101960837841,1.5390927728731185e-05
1502,39.191272639349336,4.644566535949707,-0.02710864134132862,9.78422737121582,1.475807493989123e-07,0.0007612353074364364,-5.367265885070083e-07,-87.53855895996094,-24.440792083740234,0.001698303152807057,-0.15915195643901825,-0.02619377337396145,1.5066364539961796e-05
1503,39.20127263912582,0.32443967461586,0.020891379565000534,9.835411071777344,-7.013042591097474e-07,0.00013532870798371732,4.2638439481379464e-06,-87.47821807861328,-24.440961837768555,0.0016975783510133624,-0.15915195643901825,-0.02619377337396145,1.5066364539961796e-05
1504,39.2112726389023,4.644537925720215,0.012890840880572796,9.784189224243164,-6.714059281875961e-07,0.000723599805496633,7.715487413406663e-07,-87.41741180419922,-24.441129684448242,0.001694488455541432,-0.1591491550207138,-0.026678716763854027,1.4278532034950331e-05
1505,39.22127263867878,0.2445787787437439,0.0006690925220027566,9.835445404052734,-1.4001451518197428e-06,0.00010357934661442414,-7.073947926983237e-06,-87.35658264160156,-24.44129753112793,0.0016939544584602118,-0.1591491550207138,-0.026678716763854027,1.4278532034950331e-05
1506,39.231272638455266,4.564726829528809,-0.027330920100212097,9.784189224243164,7.788211178194615e-07,0.0006873165839351714,-8.275291065729107e-07,-87.2952880859375,-24.441469192504883,0.0016910552512854338,-0.15915365517139435,-0.027122680097818375,1.39246558319428e-05
1507,39.24127263823175,0.324599951505661,0.02089119330048561,9.834644317626953,3.128594130430429e-07,7.210042531369254e-05,5.123014943819726e-06,-87.23397064208984,-24.441640853881836,0.0016906356904655695,-0.15915365517139435,-0.027122680097818375,1.39246558319428e-05
1508,39.25127263800823,4.484744548797607,-0.007553474977612495,9.784955978393555,2.4102456563923624e-07,0.000652519054710865,1.8944232351714163e-06,-87.17220306396484,-24.441810607910156,0.001687927171587944,-0.1591496616601944,-0.027552980929613113,1.4240100426832214e-05
1509,39.261272637784714,0.40467211604118347,0.02111344039440155,9.834220886230469,1.075923705684545e-06,4.3097617890452966e-05,-6.905686859681737e-06,-87.11039733886719,-24.44198226928711,0.0016876602312549949,-0.1591496616601944,-0.027552980929613113,1.4240100426832214e-05
1510,39.2712726375612,4.564862251281738,-0.027330810204148293,9.78450870513916,-6.189576993165247e-07,0.000620642676949501,-3.4373729818071297e-07,-87.04813385009766,-24.442155838012695,0.0016850661486387253,-0.1591538041830063,-0.02791498228907585,1.4503923011943698e-05
1511,39.28127263733768,0.32479146122932434,0.0008913709316402674,9.834639549255371,4.1601612110753194e-07,1.5307232388295233e-05,4.751239430333953e-06,-86.98583984375,-24.44232940673828,0.0016849517123773694,-0.1591538041830063,-0.02791498228907585,1.4503923011943698e-05
1512,39.29127263711416,4.484756946563721,0.03244655206799507,9.784518241882324,5.075884246252826e-07,0.0005881651304662228,1.3168206578484387e-06,-86.923095703125,-24.442501068115234,0.0016825103666633368,-0.15915030241012573,-0.02827698178589344,1.5031411749077961e-05
1513,39.301272636890644,0.4049074947834015,-0.01888626627624035,9.834216117858887,3.752442694349156e-07,-1.2379306099319365e-05,-6.986672815401107e-06,-86.86031341552734,-24.44267463684082,0.0016825103666633368,-0.15915030241012573,-0.02827698178589344,1.5031411749077961e-05
1514,39.31127263666713,4.484921932220459,-0.0075529576279222965,9.784875869750977,-7.43990085538826e-07,0.0005590474465861917,-1.2531804713944439e-06,-86.79708099365234,-24.44285011291504,0.0016802215250208974,-0.159155011177063,-0.02859117090702057,1.4822460798313841e-05
1515,39.32127263644361,0.40490567684173584,0.001113654114305973,9.833831787109375,1.91537174032419e-06,-3.707902578753419e-05,3.0814007914159447e-06,-86.73381042480469,-24.44302749633789,0.0016803359612822533,-0.159155011177063,-0.02859117090702057,1.4822460798313841e-05
1516,39.33127263622009,4.564969062805176,-0.007330765947699547,9.785196304321289,-4.39803500285052e-07,0.0005309137050062418,8.178091661648068e-07,-86.67007446289062,-24.443204879760742,0.001678199740126729,-0.1591528207063675,-0.028871208429336548,1.5666788385715336e-05
1517,39.341272635996575,0.3249538540840149,0.0008915647631511092,9.833490371704102,4.826475787922391e-07,-6.0723752540070564e-05,-6.181439403007971e-06,-86.60631561279297,-24.443384170532227,0.0016784286126494408,-0.1591528207063675,-0.028871208429336548,1.5666788385715336e-05
1518,39.35127263577306,4.72495698928833,0.013113957829773426,9.78432846069336,6.265366891966551e-07,0.0005055706715211272,7.186500283751229e-07,-86.5420913696289,-24.443561553955078,0.0016763305757194757,-0.15915590524673462,-0.029130754992365837,1.6303876691381447e-05
1519,39.36127263554954,0.24499912559986115,0.0006694681942462921,9.834291458129883,-2.385765753842861e-07,-8.196209091693163e-05,4.229024398227921e-06,-86.47782897949219,-24.44373893737793,0.0016766738845035434,-0.15915590524673462,-0.029130754992365837,1.6303876691381447e-05
1520,39.37127263532602,4.485052108764648,-0.007552837021648884,9.784435272216797,6.102514475969656e-07,0.00048094408703036606,1.0878256944124587e-06,-86.41312408447266,-24.443920135498047,0.0016746901674196124,-0.15915285050868988,-0.029356151819229126,1.6515279639861546e-05
1521,39.381272635102505,0.4850922226905823,-0.01866377517580986,9.833786964416504,-1.6218638165810262e-06,-0.0001020976560539566,-4.061342224304099e-06,-86.34837341308594,-24.444101333618164,0.0016751098446547985,-0.15915285050868988,-0.029356151819229126,1.6515279639861546e-05
1522,39.39127263487899,4.4049787521362305,0.032224830240011215,9.78484058380127,6.748140890522336e-07,0.0004575553466565907,1.0788006647999282e-06,-86.2831802368164,-24.44428253173828,0.0016732406802475452,-0.15915456414222717,-0.029574718326330185,1.5973530025803484e-05
1523,39.40127263465547,0.40507447719573975,0.0011138484114781022,9.833824157714844,7.193391837745367e-08,-0.00012067514762748033,4.144078957324382e-06,-86.21794891357422,-24.444461822509766,0.0016737746773287654,-0.15915456414222717,-0.029574718326330185,1.5973530025803484e-05
1524,39.41127263443195,4.565173625946045,-0.027330785989761353,9.784364700317383,-2.835419934399397e-07,0.0004374055133666843,1.7812394617067184e-06,-86.15226745605469,-24.444644927978516,0.0016719817649573088,-0.15915119647979736,-0.029745472595095634,1.5850526324356906e-05
1525,39.421272634208435,0.32510390877723694,0.0008915871731005609,9.833483695983887,-3.651926760994684e-08,-0.0001381798938382417,-3.420914254093077e-06,-86.08654022216797,-24.444828033447266,0.0016725539462640882,-0.15915119647979736,-0.029745472595095634,1.5850526324356906e-05
1526,39.43127263398492,4.565035343170166,0.032669052481651306,9.786640167236328,-2.6767443728203943e-07,0.00041757788858376443,1.14320494049025e-06,-86.02037048339844,-24.445011138916016,0.0016710280906409025,-0.15915243327617645,-0.029902566224336624,1.5676911061746068e-05
1527,39.4412726337614,0.325183242559433,-0.019108358770608902,9.827381134033203,-2.956314233415469e-07,-0.00015473662642762065,2.570909600763116e-06,-85.95415496826172,-24.445194244384766,0.0016712569631636143,-0.15915243327617645,-0.029902566224336624,1.5676911061746068e-05
1528,39.45127263353788,4.485119819641113,0.012446606531739235,9.793533325195312,-1.0679583510864177e-06,0.0004004288057330996,1.2539081808427e-06,-85.88749694824219,-24.44538116455078,0.0016700744163244963,-0.15915022790431976,-0.030052831396460533,1.4894485502736643e-05
1529,39.461272633314366,0.4852079749107361,-0.018664075061678886,9.826532363891602,5.633748401123739e-07,-0.00016927278193179518,-2.4163418856915087e-06,-85.82080078125,-24.445566177368164,0.001670570345595479,-0.15915022790431976,-0.030052831396460533,1.4894485502736643e-05
1530,39.47127263309085,4.405138969421387,0.012224546633660793,9.78899097442627,5.659557018589112e-07,0.00038271441007964313,1.3785116834696964e-06,-85.75364685058594,-24.445751190185547,0.0016691969940438867,-0.15915080904960632,-0.030175773426890373,1.5541849279543385e-05
1531,39.48127263286733,0.48515480756759644,0.0013360142474994063,9.828822135925293,6.087465180826257e-07,-0.00018219109915662557,1.818298187572509e-06,-85.68646240234375,-24.44593620300293,0.0016697311075404286,-0.15914978086948395,-0.030059661716222763,1.589009480085224e-05
1532,39.49127263264381,4.405211448669434,-0.007775459438562393,9.789361000061035,-4.605329024798266e-07,0.0003668410354293883,4.2543555878182815e-07,-85.61882781982422,-24.446125030517578,0.0016684341244399548,-0.15914954245090485,-0.030271396040916443,1.5626108506694436e-05
1533,39.501272632420296,0.48517218232154846,0.0013359360164031386,9.82844066619873,-4.5331711362450733e-07,-0.0001947707060026005,-2.798287823679857e-06,-85.5511474609375,-24.446313858032227,0.0016690063057467341,-0.15915116667747498,-0.030162114650011063,1.5367217201855965e-05
1534,39.51127263219678,4.325227737426758,-0.007997671142220497,9.789399147033691,-4.409411360484228e-07,0.000353296723915264,7.032786015770398e-07,-85.4830322265625,-24.446502685546875,0.0016677475068718195,-0.15915074944496155,-0.030367018654942513,1.5114364941837266e-05
1535,39.52127263197326,0.5651861429214478,0.0015580561012029648,9.828776359558105,-4.6838820821903937e-07,-0.0002053417410934344,5.963807439002267e-07,-85.41487121582031,-24.446693420410156,0.0016683959402143955,-0.1591504067182541,-0.030244076624512672,1.484581662225537e-05
1536,39.531272631749744,4.485184192657471,0.012446621432900429,9.789308547973633,4.896751875094196e-07,0.00033905782038345933,7.996509339136537e-07,-85.34626007080078,-24.446884155273438,0.0016672133933752775,-0.1591499298810959,-0.03044215217232704,1.5126133803278208e-05
1537,39.541272631526226,0.24525544047355652,-0.019330717623233795,9.828184127807617,-3.794350504904287e-07,-0.00021468005434144288,-1.6328705214618822e-06,-85.27761840820312,-24.44707489013672,0.0016678619431331754,-0.1591508984565735,-0.030319208279252052,1.4909232959325891e-05
1538,39.55127263130271,4.6451945304870605,0.012891099788248539,9.789599418640137,5.317181148711825e-07,0.0003276670177001506,9.321356628788635e-07,-85.20851135253906,-24.447267532348633,0.0016667174641042948,-0.15915033221244812,-0.03050362318754196,1.5213605365715921e-05
1539,39.56127263107919,0.16520977020263672,0.0004470975836738944,9.828607559204102,5.906539399802568e-07,-0.0002245622599730268,8.265158157882979e-07,-85.13938903808594,-24.447460174560547,0.0016674422658979893,-0.1591498851776123,-0.030373848974704742,1.5551760952803306e-05
1540,39.571272630855674,4.5652594566345215,-0.007331019267439842,9.78925609588623,6.489034376500058e-07,0.0003153643338009715,1.408071284458856e-06,-85.06980895996094,-24.44765281677246,0.001666335971094668,-0.15914905071258545,-0.030558263882994652,1.5923140381346457e-05
1541,39.58127263063216,0.4851621091365814,0.021335914731025696,9.828055381774902,-2.6619323989507393e-07,-0.00023224795586429536,-1.1569436537683941e-06,-85.00019073486328,-24.447845458984375,0.0016670607728883624,-0.15914975106716156,-0.030428491532802582,1.577097464178223e-05
1542,39.59127263040864,4.325323104858398,-0.02799762785434723,9.789764404296875,-3.485667150471272e-07,0.0003061263996642083,8.280317160824779e-07,-84.93013763427734,-24.448041915893555,0.0016659926623106003,-0.15914925932884216,-0.03059924580156803,1.55709949467564e-05
1543,39.60127263018512,0.4052240550518036,0.0011136458488181233,9.828479766845703,-9.309679853686248e-07,-0.00023921698448248208,8.575448759984283e-07,-84.86003875732422,-24.4482364654541,0.0016667938325554132,-0.15914875268936157,-0.030462641268968582,1.503733619756531e-05
1544,39.611272629961604,4.4051618576049805,0.03222418576478958,9.789336204528809,5.011498842577566e-07,0.00029625336173921824,1.9740693915082375e-06,-84.78949737548828,-24.44843292236328,0.0016657637897878885,-0.15914762020111084,-0.03063339740037918,1.5323868865380064e-05
1545,39.62127262973809,0.4852849245071411,-0.018664037808775902,9.82805347442627,-1.419864190665976e-07,-0.00024592384579591453,1.7183532463604934e-07,-84.71891784667969,-24.448627471923828,0.0016665649600327015,-0.15914751589298248,-0.030496792867779732,1.524246090411907e-05
1546,39.63127262951457,4.325276851654053,-0.007997971959412098,9.789759635925293,-2.8592887701961445e-07,0.00028766097966581583,1.1984838010903331e-06,-84.64789581298828,-24.44882583618164,0.001665573101490736,-0.15914684534072876,-0.03065388649702072,1.5078285287017934e-05
1547,39.64127262929105,0.565231442451477,0.0015580342151224613,9.828011512756348,-2.4264963371933845e-07,-0.0002515908854547888,5.397409950091969e-07,-84.57683563232422,-24.44902229309082,0.0016664123395457864,-0.15914654731750488,-0.03051045350730419,1.4939091670385096e-05
1548,39.651272629067535,4.2452239990234375,0.011779598891735077,9.789801597595215,-2.752453553966916e-07,0.00027877240790985525,1.5818104657228105e-06,-84.50533294677734,-24.449220657348633,0.0016654586652293801,-0.15914562344551086,-0.03066754713654518,1.4780901437916327e-05
1549,39.66127262884402,0.4851783215999603,0.021335842087864876,9.82767105102539,1.3122252084940556e-06,-0.0002570452925283462,-3.865937685532117e-07,-84.43378448486328,-24.449419021606445,0.0016662979032844305,-0.15914584696292877,-0.03052411414682865,1.5532867109868675e-05
1550,39.6712726286205,4.405394077301025,-0.04777568578720093,9.790095329284668,-2.916323182944325e-07,0.0002718111500144005,1.3013928992222645e-06,-84.36180114746094,-24.44961929321289,0.0016653822967782617,-0.15914510190486908,-0.03068803809583187,1.5365376384579577e-05
1551,39.68127262839698,0.48517927527427673,0.021335870027542114,9.827292442321777,6.429151540032763e-07,-0.00026155629893764853,-1.6269876823571394e-07,-84.2897720336914,-24.449819564819336,0.001666221534833312,-0.15914520621299744,-0.03053094446659088,1.5733796317363158e-05
1552,39.691272628173465,4.325227737426758,0.012001863680779934,9.790517807006836,-2.7808113145511015e-07,0.00026483548572286963,1.121303853324207e-06,-84.21731567382812,-24.45001983642578,0.0016653442289680243,-0.1591445654630661,-0.03068803809583187,1.557411815156229e-05
1553,39.70127262794995,0.4052906930446625,-0.018886148929595947,9.8273344039917,6.441372875087836e-07,-0.0002662925107870251,-4.3411836259110714e-07,-84.14480590820312,-24.45022201538086,0.001666221534833312,-0.1591448187828064,-0.03053094446659088,1.5943316611810587e-05
1554,39.71127262772643,4.405227184295654,0.012224072590470314,9.790094375610352,-2.3809492688542377e-07,0.0002581121225375682,1.3335476296560955e-06,-84.07186126708984,-24.450424194335938,0.0016653442289680243,-0.1591440588235855,-0.03068803809583187,1.5806495866854675e-05
1555,39.72127262750291,0.40528973937034607,-0.018886113539338112,9.827716827392578,6.454863523686072e-07,-0.0002699651231523603,-4.225415466407867e-07,-83.9988784790039,-24.450626373291016,0.0016662597190588713,-0.1591442972421646,-0.03052411414682865,1.6176454664673656e-05
1556,39.731272627279395,4.405223846435547,0.012224097736179829,9.7900972366333,-3.217495816443261e-07,0.0002526674070395529,5.784724521618045e-07,-83.92546081542969,-24.45083236694336,0.001665420481003821,-0.15914395451545715,-0.03066754713654518,1.5991932741599157e-05
1557,39.74127262705588,0.4052871763706207,-0.01888616755604744,9.8273344039917,-2.2543825650700455e-07,-0.0002726296952459961,-4.777611479767074e-07,-83.85198974609375,-24.45103645324707,0.001666335971094668,-0.15914425253868103,-0.03051045350730419,1.5862913642195053e-05
1558,39.75127262683236,4.245165824890137,0.03177962824702263,9.789802551269531,6.661439329036511e-07,0.0002476041845511645,9.218197760674229e-07,-83.77810668945312,-24.451242446899414,0.0016654586652293801,-0.15914370119571686,-0.03065388649702072,1.6244308426394127e-05
1559,39.76127262660884,0.4852849245071411,-0.01866391859948635,9.82805347442627,-2.0736392514209e-07,-0.000276203325483948,-9.443544968235074e-08,-83.70417022705078,-24.451446533203125,0.0016664123395457864,-0.15914377570152283,-0.030496792867779732,1.6125522961374372e-05
1560,39.771272626385326,4.245273113250732,-0.008220212534070015,9.789422035217285,7.300960191969352e-07,0.00024241914798039943,1.2421114661265165e-06,-83.62980651855469,-24.4516544342041,0.0016655349172651768,-0.15914304554462433,-0.03063339740037918,1.6543455785722472e-05
1561,39.78127262616181,0.5651688575744629,0.021558187901973724,9.82801342010498,-1.0270080252894331e-07,-0.0002788314886856824,1.6667796387537237e-07,-83.55538940429688,-24.451862335205078,0.001666488591581583,-0.15914297103881836,-0.030469471588730812,1.6484562365803868e-05
1562,39.79127262593829,4.325271129608154,-0.007998086512088776,9.790142059326172,1.8749659602690372e-07,0.0002379845827817917,1.8596139170767856e-06,-83.48054504394531,-24.452070236206055,0.0016656875377520919,-0.1591418981552124,-0.03061973676085472,1.6591420717304572e-05
1563,39.80127262571477,0.40522322058677673,0.0011139515554532409,9.826953887939453,9.283037911700376e-07,-0.00027988478541374207,9.898286634779652e-07,-83.40565490722656,-24.45227813720703,0.001666603027842939,-0.15914134681224823,-0.030462641268968582,1.712298944767099e-05
1564,39.811272625491256,4.245266914367676,-0.00822040718048811,9.790950775146484,-6.674721930721716e-07,0.0002327193651581183,2.425699449304375e-06,-83.33033752441406,-24.45248794555664,0.001665840158239007,-0.1591399610042572,-0.0305924154818058,1.6739819329814054e-05
1565,39.82127262526774,0.48521706461906433,0.0013360733864828944,9.826911926269531,-1.7868860169301115e-08,-0.00028243340784683824,3.840619342554419e-07,-83.2549819946289,-24.45269775390625,0.0016667938325554132,-0.1591397225856781,-0.030428491532802582,1.672946564212907e-05
1566,39.83127262504422,4.245205402374268,0.011779498308897018,9.790571212768555,9.08640458874288e-07,0.0002292389253852889,2.024190962401917e-06,-83.17919921875,-24.45290756225586,0.0016660308465361595,-0.15913857519626617,-0.030558263882994652,1.724945832393132e-05
1567,39.841272624820704,0.48521238565444946,0.0013361473102122545,9.826911926269531,-1.6361735077907724e-08,-0.000283846165984869,8.548603318558889e-07,-83.1033706665039,-24.45311737060547,0.0016669845208525658,-0.15913809835910797,-0.030401170253753662,1.723982313706074e-05
1568,39.851272624597186,4.405255317687988,-0.007776141166687012,9.790488243103027,-9.446259952028413e-08,0.00022554895258508623,1.5110443882804248e-06,-83.027099609375,-24.45332908630371,0.001666221534833312,-0.15913718938827515,-0.03052411414682865,1.7185238903039135e-05
