frame,timestamp,x,y,z,qw,qx,qy,qz,v_x (m/s),v_y (m/s),v_z (m/s),w_x (rad/s),w_y (rad/s),w_z (rad/s),acc x (m/s^2),acc y (m/s^2),acc z (m/s^2),roll,pitch,yaw
939,27025020374,-23.800546646118164,61.24238586425781,0.09412002563476562,0.9999864410163584,0.0,-0.0,-0.005207473805720072,0.0,-0.0,-0.2939999997615814,0.0,-0.0,-0.0,0.0,-0.0,-9.800000190734863,0.0,-0.0,-0.01041499468373021
940,27035020374,-23.800546646118164,61.24238586425781,0.0902000442147255,0.9999864410163584,0.0,-0.0,-0.005207473805720072,0.0,-0.0,-0.3919999897480011,0.0,-0.0,-0.0,0.0,-0.0,-9.799999237060547,0.0,-0.0,-0.01041499468373021
941,27045020374,-23.800546646118164,61.24238586425781,0.0853000208735466,0.9999864410163584,0.0,-0.0,-0.005207473805720072,0.0,-0.0,-0.4899999797344208,0.0,-0.0,-0.0,0.0,-0.0,-9.799999237060547,0.0,-0.0,-0.01041499468373021
942,27055020374,-23.800546646118164,61.24238586425781,0.07942001521587372,0.9999864410163584,0.0,-0.0,-0.005207473805720072,0.0,-0.0,-0.5879999995231628,0.0,-0.0,-0.0,0.0,-0.0,-9.800002098083496,0.0,-0.0,-0.01041499468373021
943,27065020373,-23.800546646118164,61.24238586425781,0.07292083650827408,0.9999864410163584,0.0,-0.0,-0.005207473805720072,0.0,-0.0,-0.6499363780021667,-0.00044292787788435817,0.00018683887901715934,1.7491216808274146e-12,0.0,-0.0,-6.193637847900391,0.0,-0.0,-0.01041499468373021
944,27075020373,-23.800546646118164,61.24238586425781,0.06700301915407181,0.9999864410163584,0.0,-0.0,-0.005207473805720072,-1.0590547105948644e-07,-2.2280735265667317e-06,-0.591778039932251,-0.00021339982049539685,0.00013214298815000802,7.050624528659455e-09,-1.0590547390165739e-05,-0.00022280735720414668,5.815834045410156,0.0,-0.0,-0.01041499468373021
945,27085020373,-23.800546646118164,61.24238586425781,0.06157264485955238,0.9999864410163584,0.0,-0.0,-0.005207473805720072,-8.158038866667994e-08,-1.6871613297553267e-06,-0.5430380702018738,-0.00013878810568712652,9.76341325440444e-05,-6.086086301593241e-09,2.4325081540155225e-06,5.40912187716458e-05,4.873996734619141,0.0,-0.0,-0.01041499468373021
946,27095020373,-23.800546646118164,61.24238586425781,0.05658992752432823,0.9999864410163584,0.0,-0.0,-0.005207473805720072,-8.267785034377084e-08,-1.2283089745324105e-06,-0.49827253818511963,-0.00014844961697235703,0.00010240588017040864,-7.208138530501174e-10,-1.0974616770909051e-07,4.5885237341281027e-05,4.476552963256836,0.0,-0.0,-0.01041499468373021
947,27105020373,-23.800546646118164,61.24238586425781,0.05201831832528114,0.9999864410163584,0.0,-0.0,-0.005207473805720072,-5.606609221331382e-08,-1.3413051647148677e-06,-0.45716163516044617,-0.0001549194857943803,6.57591299386695e-05,-4.224406158215288e-09,2.661175813045702e-06,-1.129961856349837e-05,4.111090183258057,0.0,-0.0,-0.01041499468373021
948,27115020372,-23.800546646118164,61.24238586425781,0.04782421141862869,0.9999864410163584,0.0,-0.0,-0.005207473805720072,-7.199930962542567e-08,-1.0381281754234806e-06,-0.4194090962409973,-0.00012380846601445228,8.779278869042173e-05,-6.49548748121731e-11,-1.593321712789475e-06,3.0317698474391364e-05,3.7752537727355957,0.0,-0.0,-0.01041499468373021
949,27125020372,-23.800546646118164,61.24238586425781,0.04397674277424812,0.9999864410163584,0.0,-0.0,-0.005207473805720072,-3.928982295064998e-08,-7.898712510723271e-07,-0.38474470376968384,-4.078710844623856e-05,4.8532107030041516e-05,-7.156164993915581e-09,3.2709485822124407e-06,2.4825692889862694e-05,3.4664392471313477,0.0,-0.0,-0.01041499468373021
950,27135020372,-23.800546646118164,61.24238586425781,0.04044754058122635,0.9999864410163584,0.0,-0.0,-0.005207473805720072,-1.3921900965385703e-08,-1.019425326376222e-06,-0.35291948914527893,-4.36855734733399e-05,8.721744961803779e-06,-6.419996756434898e-10,2.536792180762859e-06,-2.2955407985136844e-05,3.182521343231201,0.0,-0.0,-0.01041499468373021
951,27145020372,-23.800546646118164,61.24238586425781,0.03721050173044205,0.9999864410163584,0.0,-0.0,-0.005207473805720072,-2.742442717362792e-08,-5.930476163484855e-07,-0.3237023949623108,-8.650344534544274e-05,2.9845999961253256e-05,-2.0955210899842314e-09,-1.350252659904072e-06,4.263777009327896e-05,2.9217095375061035,0.0,-0.0,-0.01041499468373021
952,27155020371,-23.800546646118164,61.24238586425781,0.034241676330566406,0.9999864410163584,0.0,-0.0,-0.005207473805720072,-2.6631786553821257e-08,-6.03267949372821e-07,-0.29688146710395813,-8.791442814981565e-05,3.0129087463137694e-05,9.852761939654897e-10,7.926406198066616e-08,-1.022033302433556e-06,2.6820926666259766,0.0,-0.0,-0.01041499468373021
953,27165020371,-23.800546646118164,61.24238586425781,0.031519051641225815,0.9999864410163584,0.0,-0.0,-0.005207473805720072,-7.808318436275385e-09,-2.375480931959828e-07,-0.2722642123699188,-5.342355871107429e-05,9.881189726002049e-06,-6.667914664859609e-09,1.8823467371476e-06,3.657198612927459e-05,2.4617254734039307,0.0,-0.0,-0.01041499468373021
954,27175020371,-23.800546646118164,61.24238586425781,0.029022330418229103,0.9999864410163584,0.0,-0.0,-0.005207473805720072,-2.56884362670462e-08,-3.9377113125738106e-07,-0.2496708184480667,-1.3951638493381324e-06,2.9424158128676936e-05,2.2256836373912847e-09,-1.7880119003166328e-06,-1.5622303180862218e-05,2.2593393325805664,0.0,-0.0,-0.01041499468373021
955,27185020371,-23.800546646118164,61.24238586425781,0.026732977479696274,0.9999864410163584,0.0,-0.0,-0.005207473805720072,8.175924826048231e-09,-1.4974915529819555e-07,-0.22893542051315308,-2.6365310077380855e-06,-1.0716315046011005e-05,-5.445114137359042e-09,3.3864359920698917e-06,2.440219759591855e-05,2.0735397338867188,0.0,-0.0,-0.01041499468373021
956,27195020371,-23.800546646118164,61.24238586425781,0.024633903056383133,0.9999864410163584,0.0,-0.0,-0.005207473805720072,7.048307715251667e-09,-1.260954576309814e-07,-0.2099071443080902,-1.6482401861139806e-06,-1.1807245755335316e-05,-1.1950742617727883e-09,-1.1276171107965638e-07,2.3653697098779958e-06,1.9028276205062866,0.0,-0.0,-0.01041499468373021
957,27205020370,-23.800546646118164,61.24238586425781,0.022709425538778305,0.9999864410163584,0.0,-0.0,-0.005207473805720072,-2.4151528776883424e-08,-2.218306320855845e-07,-0.19244834780693054,1.028715587381157e-06,2.8107784601161256e-05,5.947991432719846e-09,-3.1199836030282313e-06,-9.573517672833987e-06,1.7458796501159668,0.0,-0.0,-0.01041499468373021
958,27215020370,-23.800546646118164,61.24238586425781,0.020945128053426743,0.9999864410163584,0.0,-0.0,-0.005207473805720072,-4.351480509257044e-09,-1.630790613660338e-08,-0.17642852663993835,-4.970434383722022e-05,8.070443982433062e-06,-2.6515574180763224e-09,1.9800047539320076e-06,2.055227196251508e-05,1.6019821166992188,0.0,-0.0,-0.01041499468373021
959,27225020370,-23.800546646118164,61.24238586425781,0.019327811896800995,0.9999864410163584,0.0,-0.0,-0.005207473805720072,-1.9918319438261278e-08,-3.462357511807568e-08,-0.16173233091831207,3.190813004039228e-06,2.6527579393587075e-05,3.413084814773981e-10,-1.5566838555969298e-06,-1.831566919463512e-06,1.4696195125579834,0.0,-0.0,-0.01041499468373021
960,27235020370,-23.800546646118164,61.24238586425781,0.017845306545495987,0.9999864410163584,0.0,-0.0,-0.005207473805720072,-2.0696779845508217e-09,7.225104781127811e-08,-0.14825032651424408,4.1894516471074894e-05,5.220606453804066e-06,-4.949108234342248e-09,1.7848641391537967e-06,1.068746223609196e-05,1.3482004404067993,0.0,-0.0,-0.01041499468373021
961,27245020369,-23.800546646118164,61.24238586425781,0.016486473381519318,0.9999864410163584,0.0,-0.0,-0.005207473805720072,-5.223843579926779e-09,-2.144813038285065e-07,-0.1358819454908371,4.4866144889965653e-05,3.952280621888349e-06,3.288766592390857e-09,-3.154165710839152e-07,-2.867323564714752e-05,1.2368381023406982,0.0,-0.0,-0.01041499468373021
962,27255020369,-23.800546646118164,61.24238586425781,0.015241088345646858,0.9999864410163584,0.0,-0.0,-0.005207473805720072,-2.805967902475004e-09,-3.6460210850464136e-08,-0.1245381310582161,-3.090599420829676e-05,3.867647592414869e-06,-8.19705248122915e-10,2.4178757485060487e-07,1.7802109141484834e-05,1.1343814134597778,0.0,-0.0,-0.01041499468373021
963,27265020369,-23.800546646118164,61.24238586425781,0.014099731110036373,0.9999864410163584,0.0,-0.0,-0.005207473805720072,2.811366783816993e-08,-8.61013802477828e-08,-0.1141342893242836,-4.345309207565151e-05,-3.7802841688971967e-05,-5.0182231703388425e-09,3.0919636628823355e-06,-4.964117124472978e-06,1.0403841733932495,0.0,-0.0,-0.01041499468373021
964,27275020369,-23.800546646118164,61.24238586425781,0.013053817674517632,0.9999864410163584,0.0,-0.0,-0.005207473805720072,-1.7622614478796095e-08,-4.729375557843696e-09,-0.10459193587303162,8.724347026145551e-06,2.056898665614426e-05,3.288461281059085e-09,-4.573628302750876e-06,8.137200893543195e-06,0.954235315322876,0.0,-0.0,-0.01041499468373021
965,27285020369,-23.800546646118164,61.24238586425781,0.01209537498652935,0.9999864410163584,0.0,-0.0,-0.005207473805720072,3.4984395935744317e-10,-6.019207887675293e-08,-0.09584266692399979,-4.066432666149922e-05,4.942025952914264e-07,1.0829820373814414e-09,1.7972458863368956e-06,-5.546270131162601e-06,0.8749269247055054,0.0,-0.0,-0.01041499468373021
966,27295020368,-23.800546646118164,61.24238586425781,0.011217193678021431,0.9999864410163584,0.0,-0.0,-0.005207473805720072,-1.3290661016185368e-08,8.488692060382164e-08,-0.08781852573156357,1.1299527614028193e-05,1.8743734472081997e-05,4.283133570037734e-10,-1.3640504903378314e-06,1.4507900232274551e-05,0.8024141192436218,0.0,-0.0,-0.01041499468373021
967,27305020368,-23.800546646118164,61.24238586425781,0.010412558913230896,0.9999864410163584,0.0,-0.0,-0.005207473805720072,3.089368050268604e-08,-1.955240946927006e-07,-0.08046261966228485,5.101487477077171e-05,-4.29420470027253e-05,-2.5908097889271176e-09,4.418433945829747e-06,-2.804110226861667e-05,0.7355905771255493,0.0,-0.0,-0.01041499468373021
968,27315020368,-23.800546646118164,61.24238586425781,0.009675368666648865,0.9999864410163584,0.0,-0.0,-0.005207473805720072,4.112734874883728e-10,8.464802192520438e-09,-0.07371748983860016,-3.7565358070423827e-05,-2.9360910502873594e-06,2.544129573678333e-09,-3.048240841962979e-06,2.039888931903988e-05,0.6745129823684692,0.0,-0.0,-0.01041499468373021
969,27325020368,-23.800546646118164,61.24238586425781,0.009000015445053577,0.9999864410163584,0.0,-0.0,-0.005207473805720072,-1.2759691969677078e-08,4.265388753310617e-08,-0.06753383576869965,1.4818649106018711e-05,1.7068463421310298e-05,1.024520190906486e-10,-1.317096575803589e-06,3.4189085909019923e-06,0.6183654069900513,0.0,-0.0,-0.01041499468373021
970,27335020367,-23.800546646118164,61.24238586425781,0.008381347171962261,0.9999864410163584,0.0,-0.0,-0.005207473805720072,1.7315555211894207e-08,-8.041902788136213e-08,-0.06186594441533089,1.6816589777590707e-05,-2.309964293090161e-05,-7.889142672468097e-10,3.007524810527684e-06,-1.2307290489843581e-05,0.5667891502380371,0.0,-0.0,-0.01041499468373021
971,27345020367,-23.800546646118164,61.24238586425781,0.007814674638211727,0.9999864410163584,0.0,-0.0,-0.005207473805720072,-1.2136915472638066e-08,1.0246388626455882e-07,-0.056669194251298904,1.772876021277625e-05,1.5802183042978868e-05,2.4895774330957465e-09,-2.945247160823783e-06,1.8288292267243378e-05,0.5196750164031982,0.0,-0.0,-0.01041499468373021
972,27355020367,-23.800546646118164,61.24238586425781,0.0072956085205078125,0.9999864410163584,0.0,-0.0,-0.005207473805720072,1.9459891476003577e-08,-5.2499540714734394e-08,-0.051906976848840714,1.982775575015694e-05,-2.5714720322866924e-05,-8.527512029843365e-10,3.1596805456501897e-06,-1.5496343621634878e-05,0.4762217402458191,0.0,-0.0,-0.01041499468373021
973,27365020367,-23.800546646118164,61.24238586425781,0.006820182781666517,0.9999864410163584,0.0,-0.0,-0.005207473805720072,2.312275482196924e-09,-5.879631359562154e-08,-0.04754270613193512,-3.003523488587234e-05,-5.289843102218583e-06,3.787526736687141e-09,-1.714761651783192e-06,-6.296772880887147e-07,0.4364270567893982,0.0,-0.0,-0.01041499468373021
974,27375020367,-23.800546646118164,61.24238586425781,0.006384773179888725,0.9999864410163584,0.0,-0.0,-0.005207473805720072,-1.229577684114247e-08,-1.0374635905918694e-07,-0.04354188218712807,2.2062673451728188e-05,1.4229416592570487e-05,2.530049281190827e-09,-1.4608052651965409e-06,-4.495004759519361e-06,0.40008240938186646,0.0,-0.0,-0.01041499468373021
975,27385020366,-23.800546646118164,61.24238586425781,0.005986022762954235,0.9999864410163584,0.0,-0.0,-0.005207473805720072,1.8887856612082032e-08,-1.48240914654707e-07,-0.03987563028931618,2.2102214643382467e-05,-2.638130717969034e-05,-1.9667341089046886e-09,3.1183631108433474e-06,-4.449455445865169e-06,0.36662518978118896,0.0,-0.0,-0.01041499468373021
976,27395020366,-23.800546646118164,61.24238586425781,0.00562084186822176,0.9999864410163584,0.0,-0.0,-0.005207473805720072,-1.1441959379965283e-08,3.107043156092004e-08,-0.03651659935712814,2.2177360733621754e-05,1.3633673916046973e-05,1.787722858637153e-09,-3.0329815672303084e-06,1.793113369785715e-05,0.3359031081199646,0.0,-0.0,-0.01041499468373021
977,27405020366,-23.800546646118164,61.24238586425781,0.005286483559757471,0.9999864410163584,0.0,-0.0,-0.005207473805720072,2.5255906255239324e-09,-3.085698949689686e-07,-0.03343768045306206,-2.6879730285145342e-05,-6.446559837058885e-06,2.742604809924387e-09,1.3967550103188842e-06,-3.396403189981356e-05,0.3078919053077698,0.0,-0.0,-0.01041499468373021
978,27415020366,-23.800546646118164,61.24238586425781,0.004980315919965506,0.9999864410163584,0.0,-0.0,-0.005207473805720072,3.550196359114466e-09,-1.183860547371296e-07,-0.030616359785199165,-2.785989454423543e-05,-6.493499768112088e-06,8.181355592995487e-11,1.0246057513541018e-07,1.9018383682123385e-05,0.2821320593357086,0.0,-0.0,-0.01041499468373021
979,27425020365,-23.800546646118164,61.24238586425781,0.004699973855167627,0.9999864410163584,0.0,-0.0,-0.005207473805720072,-1.0506440162316721e-08,-1.0791528559650487e-08,-0.028032369911670685,2.3066351786837913e-05,1.3088181731291115e-05,-7.990729744555836e-10,-1.4056636246095877e-06,1.0759452379716095e-05,0.25839897990226746,0.0,-0.0,-0.01041499468373021
980,27435020365,-23.800546646118164,61.24238586425781,0.004443320911377668,0.9999864410163584,0.0,-0.0,-0.005207473805720072,4.4725116943311605e-09,-1.2731365472973266e-07,-0.025666169822216034,-2.7105166736873798e-05,-6.525020580738783e-06,-7.373797406007299e-11,1.4978951412558672e-06,-1.1652212378976401e-05,0.2366200089454651,0.0,-0.0,-0.01041499468373021
981,27445020365,-23.800546646118164,61.24238586425781,0.004208335652947426,0.9999864410163584,0.0,-0.0,-0.005207473805720072,-1.1368294750013774e-08,-9.374949883067529e-08,-0.023497648537158966,2.4431723431916907e-05,1.3103793207847048e-05,2.3193220677342197e-09,-1.5840805644984357e-06,3.3564156183274463e-06,0.2168521285057068,0.0,-0.0,-0.01041499468373021
982,27455020365,-23.800546646118164,61.24238586425781,0.003993224818259478,0.9999864410163584,0.0,-0.0,-0.005207473805720072,-1.0618409262974637e-08,-1.295044000926282e-07,-0.021510815247893333,2.4926810510805808e-05,1.2939367479702923e-05,1.1982747016858752e-09,7.498854870391369e-08,-3.5754901546170004e-06,0.19868332147598267,0.0,-0.0,-0.01041499468373021
983,27465020365,-23.800546646118164,61.24238586425781,0.0037963103968650103,0.9999864410163584,0.0,-0.0,-0.005207473805720072,2.3107542546085824e-09,-4.047844299748249e-07,-0.019691186025738716,-2.5699955585878342e-05,-7.481903594452888e-06,1.8472470220132209e-09,1.2929162949149031e-06,-2.7528003556653857e-05,0.18196292221546173,0.0,-0.0,-0.01041499468373021
984,27475020364,-23.800546646118164,61.24238586425781,0.003616065951064229,0.9999864410163584,0.0,-0.0,-0.005207473805720072,1.967792861989892e-08,-1.250353847126462e-07,-0.018023833632469177,-7.895445014582947e-05,-2.7530746592674404e-05,-1.975565044887162e-09,1.7367174223181792e-06,2.7974903787253425e-05,0.1667352318763733,0.0,-0.0,-0.01041499468373021
985,27485020364,-23.800546646118164,61.24238586425781,0.0034510802943259478,0.9999864410163584,0.0,-0.0,-0.005207473805720072,-1.090519585744687e-08,-6.484024339670214e-08,-0.016497468575835228,2.2661317416350357e-05,1.1416423149057664e-05,-4.6340678690193204e-12,-3.058312358916737e-06,6.019514330546372e-06,0.15263649821281433,0.0,-0.0,-0.01041499468373021
986,27495020364,-23.800546646118164,61.24238586425781,0.00330009451135993,0.9999864410163584,0.0,-0.0,-0.005207473805720072,-6.7100893730298594e-09,1.3781003360691102e-07,-0.015099982731044292,2.345065149711445e-05,1.1306094165774994e-05,-1.1568010993556754e-09,4.195106555471284e-07,2.0265028069843538e-05,0.13974858820438385,0.0,-0.0,-0.01041499468373021
987,27505020364,-23.800546646118164,61.24238586425781,0.0031618881039321423,0.9999864410163584,0.0,-0.0,-0.005207473805720072,-6.174679434423069e-09,1.7123733186963364e-07,-0.013819627463817596,2.5315159291494638e-05,1.110223001887789e-05,-2.23753196526566e-10,5.354099386067901e-08,3.3427297694288427e-06,0.1280355304479599,0.0,-0.0,-0.01041499468373021
988,27515020363,-23.800546646118164,61.24238586425781,0.003035430796444416,0.9999864410163584,0.0,-0.0,-0.005207473805720072,-7.136435442589573e-09,9.363886022129009e-08,-0.0126472944393754,2.7219664843869396e-05,1.1275331416982226e-05,-4.2323558546719653e-10,-9.617559726393665e-08,-7.759846994304098e-06,0.11723330616950989,0.0,-0.0,-0.01041499468373021
989,27525020363,-23.800546646118164,61.24238586425781,0.002919693011790514,0.9999864410163584,0.0,-0.0,-0.005207473805720072,2.2037642821715053e-08,-8.516008165315725e-08,-0.011573800817131996,-7.379300950560719e-05,-2.8866259526694193e-05,-1.3744416715866237e-09,2.917407755376189e-06,-1.7879894585348666e-05,0.10734936594963074,0.0,-0.0,-0.01041499468373021
990,27535020363,-23.800546646118164,61.24238586425781,0.002813796978443861,0.9999864410163584,0.0,-0.0,-0.005207473805720072,6.8194161428891675e-09,6.57383694147029e-08,-0.0105905057862401,-2.328393020434305e-05,-9.878068340185564e-06,-1.1679123224084265e-09,-1.521822696304298e-06,1.5089844055182766e-05,0.09832949936389923,0.0,-0.0,-0.01041499468373021
991,27545020363,-23.800546646118164,61.24238586425781,0.0027168653905391693,0.9999864410163584,0.0,-0.0,-0.005207473805720072,-6.375835859273593e-09,1.3455378677917906e-07,-0.00969135295599699,2.8521122658276e-05,9.293127732235007e-06,1.1812579560344094e-11,-1.3195251540309982e-06,6.881541594339069e-06,0.08991528302431107,0.0,-0.0,-0.01041499468373021
992,27555020363,-23.800546646118164,61.24238586425781,0.002628173679113388,0.9999864410163584,0.0,-0.0,-0.005207473805720072,9.838940329132129e-09,1.074101376730141e-07,-0.008867616765201092,-2.1532559912884608e-05,-1.0725472748163156e-05,-2.3862933851148682e-09,1.6214777360801236e-06,-2.7143648821947863e-06,0.08237361907958984,0.0,-0.0,-0.01041499468373021
993,27565020362,-23.800546646118164,61.24238586425781,0.002547035226598382,0.9999864410163584,0.0,-0.0,-0.005207473805720072,-7.152294756451738e-09,-2.4430823586385486e-08,-0.008113260380923748,3.122278212686069e-05,8.110243470582645e-06,2.938156606901998e-09,-1.6991234588203952e-06,-1.3184096133045387e-05,0.07543563842773438,0.0,-0.0,-0.01041499468373021
994,27575020362,-23.800546646118164,61.24238586425781,0.0024728011339902878,0.9999864410163584,0.0,-0.0,-0.005207473805720072,1.0102252367971687e-08,1.0144626116925792e-07,-0.007422056049108505,-2.0024566765641794e-05,-1.125056587625295e-05,-2.976415336419791e-09,1.7254545809919364e-06,1.2587707715283614e-05,0.06912043690681458,0.0,-0.0,-0.01041499468373021
995,27585020362,-23.800546646118164,61.24238586425781,0.0024048995692282915,0.9999864410163584,0.0,-0.0,-0.005207473805720072,-5.651858092647899e-09,1.6131266988850257e-07,-0.006789665203541517,3.213765739928931e-05,8.643135515740141e-06,2.768943130337931e-10,-1.5754110336274607e-06,5.986640644550789e-06,0.06323908269405365,0.0,-0.0,-0.01041499468373021
996,27595020362,-23.800546646118164,61.24238586425781,0.0023427961859852076,0.9999864410163584,0.0,-0.0,-0.005207473805720072,9.284301327738831e-09,5.0306894650020695e-08,-0.006211747881025076,-1.7060167010640725e-05,-1.087006057787221e-05,6.353269021985852e-10,1.4936158549971879e-06,-1.1100577467004769e-05,0.057791732251644135,0.0,-0.0,-0.01041499468373021
997,27605020361,-23.800546646118164,61.24238586425781,0.0022859573364257812,0.9999864410163584,0.0,-0.0,-0.005207473805720072,-5.893921350974551e-09,1.7149874054211978e-07,-0.005683002527803183,3.4569289709907025e-05,9.109146958508063e-06,6.192380636038664e-11,-1.5178222838585498e-06,1.2119184248149395e-05,0.05287453532218933,0.0,-0.0,-0.01041499468373021
998,27615020361,-23.800546646118164,61.24238586425781,0.002233962994068861,0.9999864410163584,0.0,-0.0,-0.005207473805720072,8.340061974365653e-09,-2.684265609786962e-08,-0.00519810663536191,-1.4848902537778486e-05,-1.0672411917767022e-05,2.7311580774735944e-10,1.423398316546809e-06,-1.9834140402963385e-05,0.048489589244127274,0.0,-0.0,-0.01041499468373021
999,27625020361,-23.800546646118164,61.24238586425781,0.002186431782320142,0.9999864410163584,0.0,-0.0,-0.005207473805720072,7.684579195199603e-09,-3.470010501160914e-09,-0.004754247609525919,-1.4572796317224856e-05,-1.0811135325639043e-05,7.239049359952787e-10,-6.5548277916605e-08,2.3372645046038087e-06,0.04438590258359909,0.0,-0.0,-0.01041499468373021
1000,27635020361,-23.800546646118164,61.24238586425781,0.002142944373190403,0.9999864410163584,0.0,-0.0,-0.005207473805720072,7.119980161007788e-09,-9.151979440957803e-08,-0.004348478280007839,-1.4412884411285631e-05,-1.1325521882099565e-05,3.6888628263120893e-10,-5.64599034191815e-08,-8.80497827893123e-06,0.040576934814453125,0.0,-0.0,-0.01041499468373021
1001,27645020361,-23.800546646118164,61.24238586425781,0.0021031571086496115,0.9999864410163584,0.0,-0.0,-0.005207473805720072,8.828878073074975e-09,7.482360331323434e-08,-0.0039771366864442825,-1.554276423121337e-05,-1.1315763003949542e-05,-2.55232812662598e-09,1.7088979120671866e-07,1.6634339772281237e-05,0.03713415935635567,0.0,-0.0,-0.01041499468373021
1002,27655020360,-23.800546646118164,61.24238586425781,0.0020668029319494963,0.9999864410163584,0.0,-0.0,-0.005207473805720072,-6.0700702242399984e-09,9.12052087187476e-08,-0.0036372279282659292,3.5965058486908674e-05,8.152957889251411e-06,-3.7237138372780976e-10,-1.4898947711117216e-06,1.6381604837079067e-06,0.033990874886512756,0.0,-0.0,-0.01041499468373021
1003,27665020360,-23.800546646118164,61.24238586425781,0.0020335388835519552,0.9999864410163584,0.0,-0.0,-0.005207473805720072,-4.5591361796937235e-09,1.4700623296448612e-07,-0.0033267878461629152,3.6549565265886486e-05,8.258006346295588e-06,-1.1084645423764528e-09,1.5109340267827065e-07,5.580102424573852e-06,0.0310440082103014,0.0,-0.0,-0.01041499468373021
1004,27675020360,-23.800546646118164,61.24238586425781,0.00200309744104743,0.9999864410163584,0.0,-0.0,-0.005207473805720072,-6.144205588753948e-09,-1.771874380551708e-08,-0.003042306751012802,3.8174774090293795e-05,8.109311238513328e-06,1.8158596848394382e-09,-1.5850693557695195e-07,-1.647249882807955e-05,0.028448108583688736,0.0,-0.0,-0.01041499468373021
1005,27685020360,-23.800546646118164,61.24238586425781,0.0019752883818000555,0.9999864410163584,0.0,-0.0,-0.005207473805720072,9.80099645886412e-09,6.129594254389303e-08,-0.002782354364171624,-1.2558011803776026e-05,-1.1446331882325467e-05,-9.486481045151152e-11,1.5945201994327363e-06,7.901468052295968e-06,0.02599523961544037,0.0,-0.0,-0.01041499468373021
1006,27695020359,-23.800546646118164,61.24238586425781,0.0019498442998155951,0.9999864410163584,0.0,-0.0,-0.005207473805720072,-7.580552185970646e-09,-7.014786262971029e-08,-0.002544345799833536,-5.01384238305036e-05,8.852934115566313e-06,2.292744882836928e-09,-1.7381548786943313e-06,-1.3144381227903068e-05,0.023800857365131378,0.0,-0.0,-0.01041499468373021
1007,27705020359,-23.800546646118164,61.24238586425781,0.0019265746232122183,0.9999864410163584,0.0,-0.0,-0.005207473805720072,1.0666253658087044e-08,1.4363125444560865e-07,-0.00232695578597486,-1.3366649000090547e-05,-1.1493474630697165e-05,-4.579368884094492e-09,1.8246804529553629e-06,2.1377911252784543e-05,0.02173900231719017,0.0,-0.0,-0.01041499468373021
1008,27715020359,-23.800546646118164,61.24238586425781,0.0019052886636927724,0.9999864410163584,0.0,-0.0,-0.005207473805720072,-5.671679126351137e-09,1.14383190918943e-07,-0.0021267414558678865,3.8708407373633236e-05,7.941865987959318e-06,-9.32888419291622e-11,-1.6337932038368308e-06,-2.9248062674014363e-06,0.020021433010697365,0.0,-0.0,-0.01041499468373021
1009,27725020359,-23.800546646118164,61.24238586425781,0.0018858336843550205,0.9999864410163584,0.0,-0.0,-0.005207473805720072,-5.078021558801993e-09,8.513669769172338e-08,-0.0019445704529061913,4.02313526137732e-05,8.038916348596103e-06,1.8490121656000724e-09,5.93657567549144e-08,-2.9246493795653805e-06,0.018217099830508232,0.0,-0.0,-0.01041499468373021
1010,27735020358,-23.800546646118164,61.24238586425781,0.0018680571811273694,0.9999864410163584,0.0,-0.0,-0.005207473805720072,-5.850808282303888e-09,-3.753309218978984e-09,-0.0017772387946024537,4.118133074371144e-05,7.8690118243685e-06,1.5094148153593778e-09,-7.727867057383264e-08,-8.889000127965119e-06,0.016733165830373764,0.0,-0.0,-0.01041499468373021
1011,27745020358,-23.800546646118164,61.24238586425781,0.0018680571811273694,0.9999864410163584,0.0,-0.0,-0.005207473805720072,0.0,-0.0,0.0,0.0,-0.0,-0.0,5.850808406648866e-07,3.753309272269689e-07,0.17772388458251953,0.0,-0.0,-0.01041499468373021
1012,27755020358,-23.800546646118164,61.24238586425781,0.0018680571811273694,0.9999864410163584,0.0,-0.0,-0.005207473805720072,0.0,-0.0,0.0,0.0,-0.0,-0.0,0.0,-0.0,0.0,0.0,-0.0,-0.01041499468373021
1013,27765020358,-23.800546646118164,61.24238586425781,0.0018680571811273694,0.9999864410163584,0.0,-0.0,-0.005207473805720072,0.0,-0.0,0.0,0.0,-0.0,-0.0,0.0,-0.0,0.0,0.0,-0.0,-0.01041499468373021
1014,27775020358,-23.800546646118164,61.24238586425781,0.0018680571811273694,0.9999864410163584,0.0,-0.0,-0.005207473805720072,0.0,-0.0,0.0,0.0,-0.0,-0.0,0.0,-0.0,0.0,0.0,-0.0,-0.01041499468373021
1015,27785020357,-23.800546646118164,61.24238586425781,0.0018680571811273694,0.9999864410163584,0.0,-0.0,-0.005207473805720072,0.0,-0.0,0.0,0.0,-0.0,-0.0,0.0,-0.0,0.0,0.0,-0.0,-0.01041499468373021
1016,27795020357,-23.800546646118164,61.24238586425781,0.0018680571811273694,0.9999864410163584,0.0,-0.0,-0.005207473805720072,0.0,-0.0,0.0,0.0,-0.0,-0.0,0.0,-0.0,0.0,0.0,-0.0,-0.01041499468373021
1017,27805020357,-23.800546646118164,61.24238586425781,0.0018680571811273694,0.9999864410163584,0.0,-0.0,-0.005207473805720072,0.0,-0.0,0.0,0.0,-0.0,-0.0,0.0,-0.0,0.0,0.0,-0.0,-0.01041499468373021
1018,27815020357,-23.800546646118164,61.24238586425781,0.0018680571811273694,0.9999864410163584,0.0,-0.0,-0.005207473805720072,0.0,-0.0,0.0,0.0,-0.0,-0.0,0.0,-0.0,0.0,0.0,-0.0,-0.01041499468373021
1019,27825020356,-23.800546646118164,61.24238586425781,0.0018680571811273694,0.9999864410163584,0.0,-0.0,-0.005207473805720072,0.0,-0.0,0.0,0.0,-0.0,-0.0,0.0,-0.0,0.0,0.0,-0.0,-0.01041499468373021
1020,27835020356,-23.800546646118164,61.24238586425781,0.0018680571811273694,0.9999864410163584,0.0,-0.0,-0.005207473805720072,0.0,-0.0,0.0,0.0,-0.0,-0.0,0.0,-0.0,0.0,0.0,-0.0,-0.01041499468373021
1021,27845020356,-23.800546646118164,61.24238586425781,0.0018680571811273694,0.9999864410163584,0.0,-0.0,-0.005207473805720072,0.0,-0.0,0.0,0.0,-0.0,-0.0,0.0,-0.0,0.0,0.0,-0.0,-0.01041499468373021
1022,27855020356,-23.800546646118164,61.24238586425781,0.0018680571811273694,0.9999864410163584,0.0,-0.0,-0.005207473805720072,0.0,-0.0,0.0,0.0,-0.0,-0.0,0.0,-0.0,0.0,0.0,-0.0,-0.01041499468373021
1023,27865020356,-23.800546646118164,61.24238586425781,0.0018680571811273694,0.9999864410163584,0.0,-0.0,-0.005207473805720072,0.0,-0.0,0.0,0.0,-0.0,-0.0,0.0,-0.0,0.0,0.0,-0.0,-0.01041499468373021
1024,27875020355,-23.800546646118164,61.24238586425781,0.0018680571811273694,0.9999864410163584,0.0,-0.0,-0.005207473805720072,0.0,-0.0,0.0,0.0,-0.0,-0.0,0.0,-0.0,0.0,0.0,-0.0,-0.01041499468373021
1025,27885020355,-23.800546646118164,61.24238586425781,0.0018680571811273694,0.9999864410163584,0.0,-0.0,-0.005207473805720072,0.0,-0.0,0.0,0.0,-0.0,-0.0,0.0,-0.0,0.0,0.0,-0.0,-0.01041499468373021
1026,27895020355,-23.800546646118164,61.24238586425781,0.0018680571811273694,0.9999864410163584,0.0,-0.0,-0.005207473805720072,0.0,-0.0,0.0,0.0,-0.0,-0.0,0.0,-0.0,0.0,0.0,-0.0,-0.01041499468373021
1027,27905020355,-23.800546646118164,61.24238586425781,0.0018680571811273694,0.9999864410163584,0.0,-0.0,-0.005207473805720072,0.0,-0.0,0.0,0.0,-0.0,-0.0,0.0,-0.0,0.0,0.0,-0.0,-0.01041499468373021
1028,27915020354,-23.800546646118164,61.24238586425781,0.0018680571811273694,0.9999864410163584,0.0,-0.0,-0.005207473805720072,0.0,-0.0,0.0,0.0,-0.0,-0.0,0.0,-0.0,0.0,0.0,-0.0,-0.01041499468373021
1029,27925020354,-23.800546646118164,61.24238586425781,0.0018680571811273694,0.9999864410163584,0.0,-0.0,-0.005207473805720072,0.0,-0.0,0.0,0.0,-0.0,-0.0,0.0,-0.0,0.0,0.0,-0.0,-0.01041499468373021
1030,27935020354,-23.800546646118164,61.24238586425781,0.0018680571811273694,0.9999864410163584,0.0,-0.0,-0.005207473805720072,0.0,-0.0,0.0,0.0,-0.0,-0.0,0.0,-0.0,0.0,0.0,-0.0,-0.01041499468373021
1031,27945020354,-23.800546646118164,61.24238586425781,0.0018680571811273694,0.9999864410163584,0.0,-0.0,-0.005207473805720072,0.0,-0.0,0.0,0.0,-0.0,-0.0,0.0,-0.0,0.0,0.0,-0.0,-0.01041499468373021
1032,27955020354,-23.800546646118164,61.24238586425781,0.0018680571811273694,0.9999864410163584,0.0,-0.0,-0.005207473805720072,0.0,-0.0,0.0,0.0,-0.0,-0.0,0.0,-0.0,0.0,0.0,-0.0,-0.01041499468373021
1033,27965020353,-23.800546646118164,61.24238586425781,0.0018680571811273694,0.9999864410163584,0.0,-0.0,-0.005207473805720072,0.0,-0.0,0.0,0.0,-0.0,-0.0,0.0,-0.0,0.0,0.0,-0.0,-0.01041499468373021
1034,27975020353,-23.800546646118164,61.24238586425781,0.0018680571811273694,0.9999864410163584,0.0,-0.0,-0.005207473805720072,0.0,-0.0,0.0,0.0,-0.0,-0.0,0.0,-0.0,0.0,0.0,-0.0,-0.01041499468373021
1035,27985020353,-23.800546646118164,61.24238586425781,0.0018680571811273694,0.9999864410163584,0.0,-0.0,-0.005207473805720072,0.0,-0.0,0.0,0.0,-0.0,-0.0,0.0,-0.0,0.0,0.0,-0.0,-0.01041499468373021
1036,27995020353,-23.800546646118164,61.24238586425781,0.0018680571811273694,0.9999864410163584,0.0,-0.0,-0.005207473805720072,0.0,-0.0,0.0,0.0,-0.0,-0.0,0.0,-0.0,0.0,0.0,-0.0,-0.01041499468373021
1037,28005020352,-23.800546646118164,61.24238586425781,0.0018680571811273694,0.9999864410163584,0.0,-0.0,-0.005207473805720072,0.0,-0.0,0.0,0.0,-0.0,-0.0,0.0,-0.0,0.0,0.0,-0.0,-0.01041499468373021
1038,28015020352,-23.800546646118164,61.24238586425781,0.0018680571811273694,0.9999864410163584,0.0,-0.0,-0.005207473805720072,0.0,-0.0,0.0,0.0,-0.0,-0.0,0.0,-0.0,0.0,0.0,-0.0,-0.01041499468373021
1039,28025020352,-23.800546646118164,61.24238586425781,0.0018680571811273694,0.9999864410163584,0.0,-0.0,-0.005207473805720072,0.0,-0.0,0.0,0.0,-0.0,-0.0,0.0,-0.0,0.0,0.0,-0.0,-0.01041499468373021
1040,28035020352,-23.800546646118164,61.24238586425781,0.0018058394780382514,0.9999864410163584,0.0,-0.0,-0.005207473805720072,9.971101277983507e-09,-4.826883355235623e-07,-0.006220826879143715,-4.7742840251885355e-05,-1.9420111129875295e-05,5.676411785060509e-09,9.971100780603592e-07,-4.82688337797299e-05,-0.6220827102661133,0.0,-0.0,-0.01041499468373021
1041,28045020352,-23.800546646118164,61.24238586425781,0.001753158518113196,0.9999864410163584,0.0,-0.0,-0.005207473805720072,1.13952882685453e-08,-2.7123249424221285e-07,-0.005266389809548855,-4.8994716053130105e-05,-1.970763514691498e-05,-5.025912325207216e-11,1.4241869905617932e-07,2.1145584469195455e-05,0.0954437106847763,0.0,-0.0,-0.01041499468373021
1042,28055020351,-23.800546646118164,61.24238586425781,0.0017088699387386441,0.9999864410163584,0.0,-0.0,-0.005207473805720072,-5.187863472144727e-09,-3.814355125086877e-07,-0.004429788328707218,-1.0306698641215917e-05,3.235917915844766e-07,4.262926012188473e-09,-1.6583151136728702e-06,-1.1020301826647483e-05,0.08366014808416367,0.0,-0.0,-0.01041499468373021
1043,28065020351,-23.800546646118164,61.24238586425781,0.001671867328695953,0.9999864410163584,0.0,-0.0,-0.005207473805720072,-1.859381626445611e-08,-3.163067958666943e-07,-0.0037020014133304358,-4.870063276030123e-05,2.079546538880095e-05,2.088535788757895e-09,-1.340595304100134e-06,6.5128715505125e-06,0.07277869433164597,0.0,-0.0,-0.01041499468373021
1044,28075020351,-23.800546646118164,61.24238586425781,0.0016411590622738004,0.9999864410163584,0.0,-0.0,-0.005207473805720072,-2.092228834627008e-09,-2.56071274407077e-07,-0.003069124184548855,2.1786179331684252e-06,5.76678246488882e-07,-1.1909312425117946e-09,1.6501587651873706e-06,6.0235520322748926e-06,0.06328772008419037,0.0,-0.0,-0.01041499468373021
1045,28085020351,-23.800546646118164,61.24238586425781,0.001615982037037611,0.9999864410163584,0.0,-0.0,-0.005207473805720072,1.2623243783593807e-08,-1.949082530927626e-07,-0.0025176142808049917,-4.834458013647236e-05,-1.887437974801287e-05,5.919330303694181e-11,1.4715471934323432e-06,6.116302301961696e-06,0.055150989443063736,0.0,-0.0,-0.01041499468373021
1046,28095020350,-23.800546646118164,61.24238586425781,0.001595573383383453,0.9999864410163584,0.0,-0.0,-0.005207473805720072,-2.2953190459418238e-09,-5.783239842571675e-08,-0.0020397661719471216,2.8349934382276842e-06,9.195719030685723e-07,-1.923599300679424e-11,-1.4918562101229327e-06,1.3707585821975954e-05,0.04778481274843216,0.0,-0.0,-0.01041499468373021
1047,28105020350,-23.800546646118164,61.24238586425781,0.00157928466796875,0.9999864410163584,0.0,-0.0,-0.005207473805720072,-1.4256752445263032e-09,-3.089204980710747e-08,-0.001627912512049079,4.374736818135716e-06,1.448475359211443e-06,2.599657988877624e-10,8.696437703292759e-08,2.694034947126056e-06,0.04118536412715912,0.0,-0.0,-0.01041499468373021
1048,28115020350,-23.800546646118164,61.24238586425781,0.0015665816608816385,0.9999864410163584,0.0,-0.0,-0.005207473805720072,-1.7672799890178226e-09,-4.137302767048823e-08,-0.0012720966478809714,5.795359811600065e-06,1.8147542277802131e-06,3.329414521857643e-10,-3.4160475337330354e-08,-1.04809782897064e-06,0.03558158501982689,0.0,-0.0,-0.01041499468373021
1049,28125020350,-23.800546646118164,61.24238586425781,0.0015569304814562201,0.9999864410163584,0.0,-0.0,-0.005207473805720072,-1.8122935374620397e-09,-1.0363985225581018e-08,-0.000966682389844209,7.20629577699583e-06,2.3161308035923867e-06,3.481659682780247e-10,-4.501354844421712e-09,3.1009044505481143e-06,0.030541425570845604,0.0,-0.0,-0.01041499468373021
1050,28135020350,-23.800546646118164,61.24238586425781,0.0015498732682317495,0.9999864410163584,0.0,-0.0,-0.005207473805720072,-1.938204041707081e-09,2.365229123668655e-09,-0.0007063674856908619,-4.356279987405287e-06,2.8150629987067077e-06,4.2031106373130456e-10,-1.2591049980414937e-08,1.2729213949569385e-06,0.0260314904153347,0.0,-0.0,-0.01041499468373021
1051,28145020349,-23.800546646118164,61.24238586425781,0.0015450286446139216,0.9999864410163584,0.0,-0.0,-0.005207473805720072,-2.098013540674515e-09,2.2585782133432986e-08,-0.00048538207192905247,1.0140965059690643e-05,3.182947239110945e-06,-5.501584188216668e-10,-1.5980949896743368e-08,2.022055241468479e-06,0.022098541259765625,0.0,-0.0,-0.01041499468373021
1052,28155020349,-23.800546646118164,61.24238586425781,0.001542053185403347,0.9999864410163584,0.0,-0.0,-0.005207473805720072,-3.577971696699933e-09,-1.0599626421026187e-07,-0.0002961349382530898,1.2250357940501999e-05,3.3812325455073733e-06,2.4037978274549232e-09,-1.4799582004343392e-07,-1.2858204172516707e-05,0.018924713134765625,0.0,-0.0,-0.01041499468373021
1053,28165020349,-23.800546646118164,61.24238586425781,0.0015406799502670765,0.9999864410163584,0.0,-0.0,-0.005207473805720072,-2.4135442533435025e-09,4.3915260761195896e-08,-0.0001366138458251953,1.3039760233368725e-05,3.915066372428555e-06,3.166795492504093e-09,1.164427416711078e-07,1.4991152966103982e-05,0.015952108427882195,0.0,-0.0,-0.01041499468373021
1054,28175020349,-23.800546646118164,61.24238586425781,0.0015406799502670765,0.9999864410163584,0.0,-0.0,-0.005207473805720072,-3.4620653011074864e-09,-4.587053226146054e-08,-3.0994415283203125e-06,1.647850808694784e-06,4.2233496060362086e-06,1.7215606717968512e-10,-1.0485210566457681e-07,-8.97857898962684e-06,0.0133514404296875,0.0,-0.0,-0.01041499468373021
1055,28185020348,-23.800546646118164,61.24238586425781,0.0015417098766192794,0.9999864410163584,0.0,-0.0,-0.005207473805720072,1.264968219061302e-08,7.508028687652768e-08,0.00010643959103617817,-3.6035784432897344e-05,-1.5087479368958157e-05,-2.421978395616975e-09,1.6111748664116021e-06,1.209508172905771e-05,0.010953903198242188,0.0,-0.0,-0.01041499468373021
1056,28195020348,-23.800546646118164,61.24238586425781,0.0015436934772878885,0.9999864410163584,0.0,-0.0,-0.005207473805720072,-3.920175739580145e-09,5.789826218460803e-08,0.00019743919256143272,1.6681198758305982e-05,4.801403974852292e-06,6.391538964756194e-10,-1.656985887166229e-06,-1.7182024976136745e-06,0.009099960327148438,0.0,-0.0,-0.01041499468373021
1057,28205020348,-23.800546646118164,61.24238586425781,0.001546401996165514,0.9999864410163584,0.0,-0.0,-0.005207473805720072,1.2520385617165175e-08,1.1682304545956868e-07,0.00027106283232569695,-3.311052205390297e-05,-1.4355538951349445e-05,-1.9664823103227036e-09,1.6440560557384742e-06,5.8924783843394835e-06,0.007362363860011101,0.0,-0.0,-0.01041499468373021
1058,28215020348,-23.800546646118164,61.24238586425781,0.0015497207641601562,0.9999864410163584,0.0,-0.0,-0.005207473805720072,-4.552857646444863e-09,3.671464909871247e-08,0.00033053397783078253,6.767200375179527e-06,5.502698513737414e-06,1.386440628969865e-09,-1.7073243725462817e-06,-8.010839337657671e-06,0.005947114434093237,0.0,-0.0,-0.01041499468373021
1059,28225020348,-23.800546646118164,61.24238586425781,0.001553497277200222,0.9999864410163584,0.0,-0.0,-0.005207473805720072,-3.771370771232796e-09,4.932145714064973e-08,0.0003770160546991974,8.209352017729543e-06,5.951389539404772e-06,-1.7518961281659529e-10,7.814868752120674e-08,1.2606808468262898e-06,0.004648207686841488,0.0,-0.0,-0.01041499468373021
1060,28235020347,-23.800546646118164,61.24238586425781,0.0015576170990243554,0.9999864410163584,0.0,-0.0,-0.005207473805720072,-3.5304807965985674e-09,1.0505782910286143e-07,0.00041199682164005935,2.240320827695541e-05,6.321922228380572e-06,-7.48168971220764e-10,2.4088997463422857e-08,5.573637281486299e-06,0.003498076694086194,0.0,-0.0,-0.01041499468373021
1061,28245020347,-23.800546646118164,61.24238586425781,0.0015620040940120816,0.9999864410163584,0.0,-0.0,-0.005207473805720072,-5.117641865837186e-09,-4.173642764726537e-08,0.00043954848661087453,2.4299110009451397e-05,6.413941719074501e-06,2.2873609673013107e-09,-1.58716105147505e-07,-1.4679426385555416e-05,0.002755166497081518,0.0,-0.0,-0.01041499468373021
1062,28255020347,-23.800546646118164,61.24238586425781,0.0015665816608816385,0.9999864410163584,0.0,-0.0,-0.005207473805720072,-3.4556104644423158e-09,1.4838931861049787e-07,0.0004572582256514579,2.459519964759238e-05,6.843994924565777e-06,-8.195493728102576e-10,1.6620313658677333e-07,1.901257382996846e-05,0.0017709739040583372,0.0,-0.0,-0.01041499468373021
1063,28265020347,-23.800546646118164,61.24238586425781,0.0015712737804278731,0.9999864410163584,0.0,-0.0,-0.005207473805720072,1.0128239580353693e-08,2.3312876074044198e-09,0.00046894073602743447,-2.4361575924558565e-05,-1.2672909178945702e-05,8.6297030632565e-10,1.3583850204668124e-06,-1.4605802789446898e-05,0.0011682510375976562,0.0,-0.0,-0.01041499468373021
1064,28275020346,-23.800546646118164,61.24238586425781,0.0015760039677843451,0.9999864410163584,0.0,-0.0,-0.005207473805720072,-6.555224807414106e-09,-5.7539068620826583e-08,0.00047426222590729594,2.7886577299796045e-05,6.760862561350223e-06,2.694783729495498e-09,-1.6683464991729124e-06,-5.9870358199987095e-06,0.0005321489879861474,0.0,-0.0,-0.01041499468373021
1065,28285020346,-23.800546646118164,61.24238586425781,0.0015807723393663764,0.9999864410163584,0.0,-0.0,-0.005207473805720072,-5.143531378593025e-09,-8.360001579887921e-09,0.00047635077498853207,2.8482570996857248e-05,6.865740942885168e-06,1.5402805697561917e-09,1.4116933755303762e-07,4.917906608170597e-06,0.0002088549081236124,0.0,-0.0,-0.01041499468373021
1066,28295020346,-23.800546646118164,61.24238586425781,0.0015855026431381702,0.9999864410163584,0.0,-0.0,-0.005207473805720072,-5.069985320460546e-09,3.601530185193269e-09,0.0004741573357023299,2.9508009902201593e-05,6.965433385630604e-06,1.7874127733463752e-09,7.354605813247872e-09,1.19615322091704e-06,-0.00021934392862021923,0.0,-0.0,-0.01041499468373021
1067,28305020346,-23.800546646118164,61.24238586425781,0.001590194646269083,0.9999864410163584,0.0,-0.0,-0.005207473805720072,-5.813446612989992e-09,-8.19456786871342e-08,0.0004676818789448589,3.045364428544417e-05,6.768543698854046e-06,1.4966640149438604e-09,-7.434613280565827e-08,-8.55472080729669e-06,-0.0006475456757470965,0.0,-0.0,-0.01041499468373021
1068,28315020346,-23.800546646118164,61.24238586425781,0.0015947723295539618,0.9999864410163584,0.0,-0.0,-0.005207473805720072,2.548268085433847e-08,5.0414854513292084e-09,0.0004590702010318637,-7.169324817368761e-05,-3.252634996897541e-05,-1.7583170475177212e-09,3.129612878183252e-06,8.698716555954888e-06,-0.0008611677912995219,0.0,-0.0,-0.01041499468373021
1069,28325020345,-23.800546646118164,61.24238586425781,0.0015992354601621628,0.9999864410163584,0.0,-0.0,-0.005207473805720072,-5.873009634171922e-09,9.141361090314604e-08,0.0004480075731407851,3.080156602663919e-05,6.5201193137909286e-06,7.624806896977532e-10,-3.1355689316114876e-06,8.637212886242196e-06,-0.0011062627891078591,0.0,-0.0,-0.01041499468373021
1070,28335020345,-23.800546646118164,61.24238586425781,0.0016035842709243298,0.9999864410163584,0.0,-0.0,-0.005207473805720072,-3.038566509516727e-09,2.07651638106654e-07,0.00043502807966433465,3.1646435672882944e-05,6.975645646889461e-06,-7.140646962611186e-10,2.834443080246274e-07,1.162380249297712e-05,-0.0012979493476450443,0.0,-0.0,-0.01041499468373021
1071,28345020345,-23.800546646118164,61.24238586425781,0.001607818529009819,0.9999864410163584,0.0,-0.0,-0.005207473805720072,1.0794912519429545e-08,4.307797141223091e-08,0.0004220962291583419,-1.8186297893407755e-05,-1.3046818821749184e-05,9.602857398149922e-10,1.383347921546374e-06,-1.6457366655231453e-05,-0.001293185050599277,0.0,-0.0,-0.01041499468373021
1072,28355020345,-23.800546646118164,61.24238586425781,0.0016118620987981558,0.9999864410163584,0.0,-0.0,-0.005207473805720072,-5.404686920229551e-09,4.199189973519424e-08,0.0004062175576109439,3.205897519364953e-05,6.538324214488966e-06,2.310248436998563e-09,-1.61996001679654e-06,-1.0860716770366707e-07,-0.0015878671547397971,0.0,-0.0,-0.01041499468373021
1073,28365020344,-23.800546646118164,61.24238586425781,0.0016157912323251367,0.9999864410163584,0.0,-0.0,-0.005207473805720072,-5.787965218218005e-09,-5.613787124048031e-08,0.00039136887062340975,-5.4520121921086684e-05,7.971336344780866e-06,-8.917142579889514e-09,-3.8327829798845414e-08,-9.812977623369079e-06,-0.0014848686987534165,0.0,-0.0,-0.01041499468373021
1074,28375020344,-23.800546646118164,61.24238586425781,0.001619529677554965,0.9999864410163584,0.0,-0.0,-0.005207473805720072,1.011936223704879e-08,1.7056098755574567e-08,0.0003755378711502999,-1.739394610922318e-05,-1.254102880920982e-05,3.682427029971791e-09,1.5907327224340406e-06,7.319397354876855e-06,-0.0015830999473109841,0.0,-0.0,-0.01041499468373021
1075,28385020344,-23.800546646118164,61.24238586425781,0.0016231155022978783,0.9999864410163584,0.0,-0.0,-0.005207473805720072,9.036011050511661e-09,1.887107137221733e-09,0.00036043167347088456,-1.6969022908597253e-05,-1.2627316209545825e-05,-8.913710880520398e-10,-1.0833511510099925e-07,-1.5168991467362503e-06,-0.0015106197679415345,0.0,-0.0,-0.01041499468373021
1076,28395020344,-23.800546646118164,61.24238586425781,0.0016265487065538764,0.9999864410163584,0.0,-0.0,-0.005207473805720072,-2.1158538032750585e-08,-4.080671078821041e-10,0.0003429412900004536,-1.6833260815474205e-05,2.7362782930140384e-05,4.005574094634312e-09,-3.019454879904515e-06,-2.2951742550958443e-07,-0.001749038347043097,0.0,-0.0,-0.01041499468373021
1077,28405020344,-23.800546646118164,61.24238586425781,0.0016298294067382812,0.9999864410163584,0.0,-0.0,-0.005207473805720072,-3.918992241835895e-09,3.681949323208755e-08,0.0003269672452006489,3.4293727367185056e-05,7.144006303860806e-06,1.4413191751216914e-09,1.723954710541875e-06,3.7227562188490992e-06,-0.0015974044799804688,0.0,-0.0,-0.01041499468373021
1078,28415020343,-23.800546646118164,61.24238586425781,0.0016329193022102118,0.9999864410163584,0.0,-0.0,-0.005207473805720072,-5.2867310529336464e-09,7.439323379543339e-09,0.0003099155437666923,3.5369892430026084e-05,7.322135388676543e-06,-2.413910404897024e-09,-1.367738775570615e-07,-2.9380169053183636e-06,-0.0017051701433956623,0.0,-0.0,-0.01041499468373021
1079,28425020343,-23.800546646118164,61.24238586425781,0.0016358565771952271,0.9999864410163584,0.0,-0.0,-0.005207473805720072,2.4309445123549267e-08,-7.149306924247867e-08,0.0002951144997496158,-6.574077269760892e-05,-3.198279955540784e-05,-1.188073195379502e-08,2.959617631859146e-06,-7.893239853729028e-06,-0.0014801044017076492,0.0,-0.0,-0.01041499468373021
1080,28435020343,-23.800546646118164,61.24238586425781,0.0016386413481086493,0.9999864410163584,0.0,-0.0,-0.005207473805720072,-6.582829392698386e-09,6.095342541811988e-08,0.00027937887352891266,3.516805008985102e-05,6.943396783753997e-06,1.5622839910633957e-08,-3.0892274480720516e-06,1.3244650290289428e-05,-0.0015735626220703125,0.0,-0.0,-0.01041499468373021
1081,28445020343,-23.800546646118164,61.24238586425781,0.0016386413481086493,0.9999864410163584,0.0,-0.0,-0.005207473805720072,0.0,-0.0,0.0,0.0,-0.0,-0.0,6.582829428225523e-07,-6.095342541811988e-06,-0.027937887236475945,0.0,-0.0,-0.01041499468373021
1082,28455020342,-23.800546646118164,61.24238586425781,0.0016386413481086493,0.9999864410163584,0.0,-0.0,-0.005207473805720072,-1.4582718144140472e-08,3.692668570920432e-08,6.466865306720138e-05,5.0401940825395286e-05,1.9316343241371214e-05,5.547890591373061e-09,-1.4582718677047524e-06,3.6926685424987227e-06,0.006466865539550781,0.0,-0.0,-0.01041499468373021
1083,28465020342,-23.800546646118164,61.24238586425781,0.0016401290195062757,0.9999864410163584,0.0,-0.0,-0.005207473805720072,1.4372960599473572e-09,-3.017682104200503e-08,8.58211496961303e-05,-9.101615319195844e-07,-9.35870502871694e-07,-8.016271202393455e-09,1.6020013617890072e-06,-6.710350589855807e-06,0.0021152496337890625,0.0,-0.0,-0.01041499468373021
1084,28475020342,-23.800546646118164,61.24238586425781,0.0016411590622738004,0.9999864410163584,0.0,-0.0,-0.005207473805720072,1.261144522146651e-09,-5.1470507855810865e-09,0.00010220527474302799,-2.114513563356013e-06,-1.7639241605138523e-06,1.5526735452908724e-09,-1.7615153780070614e-08,2.502976940377266e-06,0.0016384124755859375,0.0,-0.0,-0.01041499468373021
1085,28485020342,-23.800546646118164,61.24238586425781,0.0016423034248873591,0.9999864410163584,0.0,-0.0,-0.005207473805720072,-1.3297387191357757e-08,3.626404421197549e-08,0.0001151370961451903,4.850241384701803e-05,1.7496669897809625e-05,6.1243072835281964e-09,-1.455853180232225e-06,4.141109457123093e-06,0.0012931821402162313,0.0,-0.0,-0.01041499468373021
1086,28495020342,-23.800546646118164,61.24238586425781,0.0016435622237622738,0.9999864410163584,0.0,-0.0,-0.005207473805720072,-1.2240024993559473e-08,7.088324149862046e-09,0.00012513159890659153,4.8305457312380895e-05,1.706771581666544e-05,-2.2612201000526966e-09,1.0573621977982839e-07,-2.917571919169859e-06,0.0009994502179324627,0.0,-0.0,-0.01041499468373021
1087,28505020341,-23.800546646118164,61.24238586425781,0.001644897391088307,0.9999864410163584,0.0,-0.0,-0.005207473805720072,3.1215254825411876e-09,-3.4946747717867765e-08,0.0001321125018876046,-3.6815333714912413e-06,-3.3421977150283055e-06,-6.370081351292356e-09,1.5361549685621867e-06,-4.203507160127629e-06,0.000698090298101306,0.0,-0.0,-0.01041499468373021
1088,28515020341,-23.800546646118164,61.24238586425781,0.0016462707426398993,0.9999864410163584,0.0,-0.0,-0.005207473805720072,1.7898662107995733e-08,-4.4093894757679664e-08,0.00013789176591672003,-5.6954773754114285e-05,-2.3958755264175124e-05,-3.621256183805599e-09,1.4777136811972014e-06,-9.147146897703351e-07,0.0005779264029115438,0.0,-0.0,-0.01041499468373021
1089,28525020341,-23.800546646118164,61.24238586425781,0.001647682162001729,0.9999864410163584,0.0,-0.0,-0.005207473805720072,-1.217594203239969e-08,6.389838347331533e-08,0.00013927459076512605,4.216859815642238e-05,1.4875232409394812e-05,1.405803384812998e-08,-3.0074602364038583e-06,1.0799228221003432e-05,0.00013828248484060168,0.0,-0.0,-0.01041499468373021
1090,28535020341,-23.800546646118164,61.24238586425781,0.0016490935813635588,0.9999864410163584,0.0,-0.0,-0.005207473805720072,4.228322580956956e-09,-2.5858225782826594e-08,0.00014104842557571828,-7.884298611315899e-06,-4.846230694965925e-06,-9.325042071850476e-09,1.640426489757374e-06,-8.975661330623552e-06,0.0001773834810592234,0.0,-0.0,-0.01041499468373021
1091,28545020340,-23.800546646118164,61.24238586425781,0.0016505050007253885,0.9999864410163584,0.0,-0.0,-0.005207473805720072,3.18167292512328e-09,-6.915363570669797e-08,0.0001412296260241419,-9.686925477581099e-05,-4.448445906746201e-06,-4.868411007663553e-09,-1.0466496291883232e-07,-4.329540843173163e-06,1.8120044842362404e-05,0.0,-0.0,-0.01041499468373021
1092,28555020340,-23.800546646118164,61.24238586425781,0.0016519164200872183,0.9999864410163584,0.0,-0.0,-0.005207473805720072,4.630224204049682e-09,4.948573817387114e-08,0.00014015196938998997,-1.0446881788084283e-05,-5.7973797993327025e-06,1.0426352226033941e-08,1.4485512167539127e-07,1.186393819807563e-05,-0.00010776566341519356,0.0,-0.0,-0.01041499468373021
1093,28565020340,-23.800546646118164,61.24238586425781,0.0016532897716388106,0.9999864410163584,0.0,-0.0,-0.005207473805720072,-1.027245843943092e-08,4.365594463706657e-08,0.00013748169294558465,4.034104131278582e-05,1.3407227015704848e-05,2.6495394767067637e-09,-1.4902682323736371e-06,-5.829793394696026e-07,-0.00026702764444053173,0.0,-0.0,-0.01041499468373021
1094,28575020340,-23.800546646118164,61.24238586425781,0.0016546630067750812,0.9999864410163584,0.0,-0.0,-0.005207473805720072,5.462275964873697e-09,-2.9356492348142638e-08,0.00013565062545239925,-1.0505293175810948e-05,-6.579060936928727e-06,-8.826690489627254e-09,1.5734734688521712e-06,-7.301243840629468e-06,-0.0001831067493185401,0.0,-0.0,-0.01041499468373021
1095,28585020339,-23.800546646118164,61.24238586425781,0.0016559981741011143,0.9999864410163584,0.0,-0.0,-0.005207473805720072,5.3045314807320665e-09,-5.6000155623792125e-09,0.00013304709864314646,-1.1884038030984811e-05,-7.432684469677042e-06,1.3474037441341125e-09,-1.577444841416309e-08,2.375647682129056e-06,-0.00026035268092527986,0.0,-0.0,-0.01041499468373021
1096,28595020339,-23.800546646118164,61.24238586425781,0.0016572570893913507,0.9999864410163584,0.0,-0.0,-0.005207473805720072,5.566404226442501e-09,-1.7034312849162347e-09,0.00012776374933309853,-1.2392352800816298e-05,-7.806373105267994e-06,4.662726871274003e-10,2.6187274571043417e-08,3.8965845305938274e-07,-0.0005283349310047925,0.0,-0.0,-0.01041499468373021
1097,28605020339,-23.800546646118164,61.24238586425781,0.0016585158882662654,0.9999864410163584,0.0,-0.0,-0.005207473805720072,5.9607900837477246e-09,-1.0695402341553972e-09,0.000124273297842592,-1.2746932952723e-05,-8.343203262484167e-06,5.0904825493747197e-11,3.943858573052239e-08,6.338910196745928e-08,-0.000349045149050653,0.0,-0.0,-0.01041499468373021
1098,28615020339,-23.800546646118164,61.24238586425781,0.0016596984351053834,0.9999864410163584,0.0,-0.0,-0.005207473805720072,-8.584657429366871e-09,3.6277857162758664e-08,0.00012007712939521298,3.777815800276585e-05,1.089114448404871e-05,5.587182716482175e-09,-1.454544758416887e-06,3.7347397210396593e-06,-0.0004196168447379023,0.0,-0.0,-0.01041499468373021
1099,28625020339,-23.800546646118164,61.24238586425781,0.001660842914134264,0.9999864410163584,0.0,-0.0,-0.005207473805720072,-7.794537459915318e-09,7.172647809028376e-09,0.00011438369256211445,3.8369013054762036e-05,1.0806582395161968e-05,-2.2714294889425446e-09,7.901199694515526e-08,-2.910520834120689e-06,-0.0005693436833098531,0.0,-0.0,-0.01041499468373021
1100,28635020338,-23.800546646118164,61.24238586425781,0.0016619490925222635,0.9999864410163584,0.0,-0.0,-0.005207473805720072,6.982084244100406e-09,-3.375146562234477e-08,0.00011014938354492188,-1.1375529538781848e-05,-8.811986845103092e-06,-6.183257905689743e-09,1.4776621810597135e-06,-4.092411472811364e-06,-0.00042343090171925724,0.0,-0.0,-0.01041499468373021
1101,28645020338,-23.800546646118164,61.24238586425781,0.0016630172031000257,0.9999864410163584,0.0,-0.0,-0.005207473805720072,6.566521992823482e-09,-5.756976229065458e-09,0.00010535240289755166,-1.2061320376233198e-05,-9.266398592444602e-06,2.0526917943186618e-09,-4.1556226904049254e-08,2.79944879366667e-06,-0.0004796980647370219,0.0,-0.0,-0.01041499468373021
1102,28655020338,-23.800546646118164,61.24238586425781,0.0016630172031000257,0.9999864410163584,0.0,-0.0,-0.005207473805720072,-7.928649736754778e-09,3.584893093488972e-08,0.00010002135968534276,3.8741080061299726e-05,9.938758921634872e-06,6.1848677290754495e-09,-1.4495171853923239e-06,4.1605908336350694e-06,-0.0005331042921170592,0.0,-0.0,-0.01041499468373021
1103,28665020338,-23.800546646118164,61.24238586425781,0.0016649627359583974,0.9999864410163584,0.0,-0.0,-0.005207473805720072,7.569822990660668e-09,-2.986677927196979e-08,9.588241664459929e-05,-1.1189656106580514e-05,-9.623076039133593e-06,-7.746392860497053e-09,1.5498471839237027e-06,-6.571571248059627e-06,-0.000413894304074347,0.0,-0.0,-0.01041499468373021
1104,28675020337,-23.800546646118164,61.24238586425781,0.0016649627359583974,0.9999864410163584,0.0,-0.0,-0.005207473805720072,6.243965344765456e-09,-6.955170306355285e-08,9.057045099325478e-05,-9.9723540188279e-05,-8.824147698760498e-06,-4.328108982321055e-09,-1.3258576814223488e-07,-3.968492364947451e-06,-0.0005311965942382812,0.0,-0.0,-0.01041499468373021
1105,28685020337,-23.800546646118164,61.24238586425781,0.001666755648329854,0.9999864410163584,0.0,-0.0,-0.005207473805720072,-7.585443384527935e-09,8.789211847215483e-08,8.63265959196724e-05,3.9393115002894774e-05,1.009612788038794e-05,1.630583135181496e-08,-1.3829409226673306e-06,1.5744382835691795e-05,-0.0004243855073582381,0.0,-0.0,-0.01041499468373021
1106,28695020337,-23.800546646118164,61.24238586425781,0.001666755648329854,0.9999864410163584,0.0,-0.0,-0.005207473805720072,7.790367462234826e-09,-2.2798202437002146e-08,8.119583071675152e-05,-1.0866740922210738e-05,-9.787448107090313e-06,-1.0911959336112886e-08,1.5375810562545666e-06,-1.1069032552768476e-05,-0.0005130765493959188,0.0,-0.0,-0.01041499468373021
1107,28705020337,-23.800546646118164,61.24238586425781,0.0016683196881785989,0.9999864410163584,0.0,-0.0,-0.005207473805720072,6.787661099849629e-09,-3.1864577643148095e-09,7.719993300270289e-05,-1.0157604265259579e-05,-9.605733794160187e-06,8.656149685926096e-10,-1.0027063979123341e-07,1.961174575626501e-06,-0.0003995897714048624,0.0,-0.0,-0.01041499468373021
1108,28715020337,-23.800546646118164,61.24238586425781,0.0016683196881785989,0.9999864410163584,0.0,-0.0,-0.005207473805720072,-8.55794279885913e-09,-2.83286087920942e-08,7.370948878815398e-05,-4.757812712341547e-05,1.0801876669574995e-05,-7.916887284631358e-11,-1.5345603969763033e-06,-2.5142151116597233e-06,-0.00034904442145489156,0.0,-0.0,-0.01041499468373021
1109,28725020336,-23.800546646118164,61.24238586425781,0.0016697311075404286,0.9999864410163584,0.0,-0.0,-0.005207473805720072,-6.453725998056825e-09,5.809271286238982e-08,6.91604582243599e-05,3.9820271922508255e-05,9.581171980244108e-06,7.800760037923737e-09,2.1042167475116003e-07,8.642132343084086e-06,-0.00045490305637940764,0.0,-0.0,-0.01041499468373021
1110,28735020336,-23.800546646118164,61.24238586425781,0.0016697311075404286,0.9999864410163584,0.0,-0.0,-0.005207473805720072,7.624194608979451e-09,-2.5851381479924385e-08,6.575584120582789e-05,-8.938917744671926e-06,-9.641288670536596e-06,-9.088431340842362e-09,1.4077920695854118e-06,-8.394409633183386e-06,-0.0003404617018532008,0.0,-0.0,-0.01041499468373021
1111,28745020336,-23.800546646118164,61.24238586425781,0.0016709899064153433,0.9999864410163584,0.0,-0.0,-0.005207473805720072,6.926536233464731e-09,-3.985546559448494e-09,6.220817158464342e-05,-8.850092854117975e-06,-9.805265108298045e-06,1.2202674426475824e-09,-6.976583932782887e-08,2.186583515140228e-06,-0.0003547669621184468,0.0,-0.0,-0.01041499468373021
1112,28755020336,-23.800546646118164,61.24238586425781,0.0016709899064153433,0.9999864410163584,0.0,-0.0,-0.005207473805720072,7.092804565900224e-09,-8.659517547471296e-10,5.810737638967112e-05,-8.680519385961816e-06,-1.002251428872114e-05,3.94012017457257e-10,1.66268332435493e-08,3.1195946803563857e-07,-0.00041007951949723065,0.0,-0.0,-0.01041499468373021
1113,28765020335,-23.800546646118164,61.24238586425781,0.0016720962012186646,0.9999864410163584,0.0,-0.0,-0.005207473805720072,-7.735987850310266e-09,3.704226614331674e-08,5.389213401940651e-05,4.26267106377054e-05,9.610279448679648e-06,5.715639073144985e-09,-1.4828792700427584e-06,3.7908218928350834e-06,-0.00042152422247454524,0.0,-0.0,-0.01041499468373021
1114,28775020335,-23.800546646118164,61.24238586425781,0.0016720962012186646,0.9999864410163584,0.0,-0.0,-0.005207473805720072,-7.149306480158657e-09,7.920525568749781e-09,5.1708218961721286e-05,4.382311090012081e-05,9.817658792599104e-06,-2.2305832736435605e-09,5.86681352388041e-08,-2.9121740681148367e-06,-0.00021839150576852262,0.0,-0.0,-0.01041499468373021
1115,28785020335,-23.800546646118164,61.24238586425781,0.0016720962012186646,0.9999864410163584,0.0,-0.0,-0.005207473805720072,7.46763717529575e-09,-3.454816877024314e-08,4.718780473922379e-05,-7.4589620453480165e-06,-9.572523595124949e-06,-6.301186683543847e-09,1.4616944099543616e-06,-4.246869593771407e-06,-0.0004520414222497493,0.0,-0.0,-0.01041499468373021
1116,28795020335,-23.800546646118164,61.24238586425781,0.0016735458048060536,0.9999864410163584,0.0,-0.0,-0.005207473805720072,6.482196557300313e-09,-5.597287078273894e-09,4.4126511056674644e-05,-7.996022759471089e-06,-9.245556611858774e-06,2.211814953412272e-09,-9.854406357590051e-08,2.8950883006473305e-06,-0.0003061293682549149,0.0,-0.0,-0.01041499468373021
1117,28805020335,-23.800546646118164,61.24238586425781,0.0016735458048060536,0.9999864410163584,0.0,-0.0,-0.005207473805720072,6.3302905140005805e-09,-3.0927424510274193e-10,4.213333158986643e-05,-6.812778792664176e-06,-8.985250133264344e-06,7.444803662437494e-10,-1.5190604329973212e-08,5.28801251675759e-07,-0.00019931794668082148,0.0,-0.0,-0.01041499468373021
1118,28815020334,-23.800546646118164,61.24238586425781,0.0016735458048060536,0.9999864410163584,0.0,-0.0,-0.005207473805720072,-8.633445958139419e-09,3.787534197385867e-08,3.870964064844884e-05,4.5409022277453914e-05,1.0856027984118555e-05,5.796883861819424e-09,-1.4963736703066388e-06,3.818461664195638e-06,-0.00034236907958984375,0.0,-0.0,-0.01041499468373021
1119,28825020334,-23.800546646118164,61.24238586425781,0.0016747283516451716,0.9999864410163584,0.0,-0.0,-0.005207473805720072,-8.891197111893234e-09,-5.812292158680066e-08,3.672599632409401e-05,-4.389634705148637e-05,1.2257381968083791e-05,-8.377467608511324e-09,-2.5775115375381574e-08,-9.59982571657747e-06,-0.00019836443243548274,0.0,-0.0,-0.01041499468373021
1120,28835020334,-23.800546646118164,61.24238586425781,0.0016747283516451716,0.9999864410163584,0.0,-0.0,-0.005207473805720072,6.7571508388653e-09,1.7820878994712075e-08,3.396034298930317e-05,-6.003424459777307e-06,-7.88339093560353e-06,4.0328842487724614e-09,1.5648348608010565e-06,7.594380349473795e-06,-0.00027656531892716885,0.0,-0.0,-0.01041499468373021
1121,28845020334,-23.800546646118164,61.24238586425781,0.0016747283516451716,0.9999864410163584,0.0,-0.0,-0.005207473805720072,-9.389661492775758e-09,4.058279401419895e-08,3.101348920608871e-05,4.6393619413720444e-05,1.2008556041109841e-05,4.85535833760764e-09,-1.6146811958606122e-06,2.2761914806324057e-06,-0.00029468536376953125,0.0,-0.0,-0.01041499468373021
1122,28855020333,-23.800546646118164,61.24238586425781,0.0016747283516451716,0.9999864410163584,0.0,-0.0,-0.005207473805720072,-9.322316252280416e-09,-5.614370124362722e-08,2.955436684715096e-05,-4.079238715348765e-05,1.29068830574397e-05,-8.588367350625958e-09,6.7345240495342296e-09,-9.67264986684313e-06,-0.00014591222861781716,0.0,-0.0,-0.01041499468373021
1123,28865020333,-23.800546646118164,61.24238586425781,0.0016747283516451716,0.9999864410163584,0.0,-0.0,-0.005207473805720072,0.0,-0.0,0.0,0.0,-0.0,-0.0,9.322316145699006e-07,5.614369911199901e-06,-0.0029554367065429688,0.0,-0.0,-0.01041499468373021
1124,28875020333,-23.800546646118164,61.24238586425781,0.0016757582779973745,0.9999864410163584,0.0,-0.0,-0.005207473805720072,4.4506764940166477e-10,-2.9860691697081165e-10,6.322860372165451e-06,-4.072351202921709e-07,-5.903547162233735e-07,-9.158500346995169e-11,4.4506766272434106e-08,-2.9860693473438005e-08,0.0006322860135696828,0.0,-0.0,-0.01041499468373021
1125,28885020333,-23.800546646118164,61.24238586425781,0.0016757582779973745,0.9999864410163584,0.0,-0.0,-0.005207473805720072,4.401179143354028e-10,2.962084189039871e-10,8.21113553683972e-06,8.245767446624086e-08,-6.213633128027141e-07,4.714152679330397e-11,-4.949735066261951e-10,5.948152903556547e-08,0.0001888275146484375,0.0,-0.0,-0.01041499468373021
1126,28895020333,-23.800546646118164,61.24238586425781,0.0016757582779973745,0.9999864410163584,0.0,-0.0,-0.005207473805720072,7.58742513262689e-10,-2.6018717735887265e-10,1.0051727258542087e-05,-3.288547247848328e-07,-1.0497841458345647e-06,-9.288154967368456e-11,3.186245933761711e-08,-5.563956051446439e-08,0.0001840591721702367,0.0,-0.0,-0.01041499468373021
1127,28905020332,-23.800546646118164,61.24238586425781,0.0016757582779973745,0.9999864410163584,0.0,-0.0,-0.005207473805720072,1.5644907591649826e-08,-3.719731722640063e-08,1.1358260962879285e-05,-5.102291106595658e-05,-2.07955436053453e-05,-5.601709318625581e-09,1.4886164763083798e-06,-3.693713097163709e-06,0.00013065336679574102,0.0,-0.0,-0.01041499468373021
1128,28915020332,-23.800546646118164,61.24238586425781,0.0016757582779973745,0.9999864410163584,0.0,-0.0,-0.005207473805720072,4.5293629957754433e-10,2.9417570601708576e-08,1.1940001968469005e-05,-6.513812991215673e-07,-1.6690800066498923e-06,7.846804983557831e-09,-1.519197212473955e-06,6.661488896497758e-06,5.8174100558971986e-05,0.0,-0.0,-0.01041499468373021
1129,28925020332,-23.800546646118164,61.24238586425781,0.0016757582779973745,0.9999864410163584,0.0,-0.0,-0.005207473805720072,-1.357961298964483e-08,4.185313429161397e-08,1.241683912667213e-05,5.0910271966131404e-05,1.7908912923303433e-05,3.97516242145457e-09,-1.4032549415787798e-06,1.2435564258339582e-06,4.76837158203125e-05,0.0,-0.0,-0.01041499468373021
1130,28935020332,-23.800546646118164,61.24238586425781,0.0016757582779973745,0.9999864410163584,0.0,-0.0,-0.005207473805720072,2.1485730972159445e-09,-2.8925473571916882e-08,1.1930465007026214e-05,3.514084880862356e-07,-1.971652409338276e-06,-8.480689039913614e-09,1.5728186326668947e-06,-7.077861027937615e-06,-4.863741196459159e-05,0.0,-0.0,-0.01041499468373021
1131,28945020331,-23.800546646118164,61.24238586425781,0.0016757582779973745,0.9999864410163584,0.0,-0.0,-0.005207473805720072,-1.3384103603186759e-08,3.346170984741548e-08,1.2178420547570568e-05,5.154095561010763e-05,1.7552867575432174e-05,7.203798446653309e-09,-1.5532677934970707e-06,6.238718924578279e-06,2.4795554054435343e-05,0.0,-0.0,-0.01041499468373021
1132,28955020331,-23.800546646118164,61.24238586425781,0.0016757582779973745,0.9999864410163584,0.0,-0.0,-0.005207473805720072,2.379597408008749e-09,-3.0024537522876926e-08,1.2941360182594508e-05,1.0507460501685273e-06,-2.3281968424271327e-06,-7.47045003635094e-09,1.5763700957904803e-06,-6.348624538077274e-06,7.629395986441523e-05,0.0,-0.0,-0.01041499468373021
1133,28965020331,-23.800546646118164,61.24238586425781,0.0016767883207648993,0.9999864410163584,0.0,-0.0,-0.005207473805720072,1.6498427513056413e-08,-4.234704675809553e-08,1.3608932022179943e-05,-5.1060527766821906e-05,-2.2063688447815366e-05,-3.938100068268113e-09,1.4118830904408242e-06,-1.2322509519435698e-06,6.675718759652227e-05,0.0,-0.0,-0.01041499468373021
1134,28975020331,-23.800546646118164,61.24238586425781,0.0016767883207648993,0.9999864410163584,0.0,-0.0,-0.005207473805720072,1.0245310155809761e-09,2.820429934047297e-08,1.3513565136236139e-05,-1.3499454780685483e-06,-2.5270419428125024e-06,8.42679437340621e-09,-1.5473896155526745e-06,7.055134574329713e-06,-9.536688594380394e-06,0.0,-0.0,-0.01041499468373021
1135,28985020331,-23.800546646118164,61.24238586425781,0.0016767883207648993,0.9999864410163584,0.0,-0.0,-0.005207473805720072,1.6824066584320008e-09,4.00096045183318e-09,1.2874603271484375e-05,-1.1746757309083478e-06,-2.3652792151551694e-06,-1.501675006565506e-09,6.578756739372693e-08,-2.4203338853112655e-06,-6.389618647517636e-05,0.0,-0.0,-0.01041499468373021
1136,28995020330,-23.800546646118164,61.24238586425781,0.0016767883207648993,0.9999864410163584,0.0,-0.0,-0.005207473805720072,1.756460754620548e-09,7.426282921940697e-10,1.2121200597903226e-05,-8.380420126741228e-07,-2.4759665393503383e-06,-4.701671829643317e-10,7.405409618854719e-09,-3.25833241276996e-07,-7.534027099609375e-05,0.0,-0.0,-0.01041499468373021
1137,29005020330,-23.800546646118164,61.24238586425781,0.0016767883207648993,0.9999864410163584,0.0,-0.0,-0.005207473805720072,-1.32437110167416e-08,3.728441200223642e-08,1.1672973414533772e-05,4.997825817554258e-05,1.737668389978353e-05,5.523353330261216e-09,-1.5000172197687789e-06,3.654178499346017e-06,-4.48227183369454e-05,0.0,-0.0,-0.01041499468373021
1138,29015020330,-23.800546646118164,61.24238586425781,0.0016767883207648993,0.9999864410163584,0.0,-0.0,-0.005207473805720072,2.4795598907445537e-09,-2.9540213830614448e-08,1.1739730325643905e-05,-4.889446927336394e-07,-2.4505993678758387e-06,-7.950221814212455e-09,1.5723271644674242e-06,-6.682462753815344e-06,6.675691111013293e-06,0.0,-0.0,-0.01041499468373021
1139,29025020330,-23.800546646118164,61.24238586425781,0.0016767883207648993,0.9999864410163584,0.0,-0.0,-0.005207473805720072,1.1354974738253532e-09,-6.990956080699107e-08,1.1396407899155747e-05,-9.025057079270482e-05,-1.6417154711234616e-06,-4.410693588141612e-09,-1.3440623547467112e-07,-4.0369345697399694e-06,-3.4332242648815736e-05,0.0,-0.0,-0.01041499468373021
1140,29035020329,-23.800546646118164,61.24238586425781,0.0016767883207648993,0.9999864410163584,0.0,-0.0,-0.005207473805720072,-1.2488982292779838e-08,8.761689684888552e-08,1.1377333976270165e-05,4.79508307762444e-05,1.7016158381011337e-05,1.6275155445555356e-08,-1.3624479606733075e-06,1.5752646504552104e-05,-1.907392288558185e-06,0.0,-0.0,-0.01041499468373021
1141,29045020329,-23.800546646118164,61.24238586425781,0.0016767883207648993,0.9999864410163584,0.0,-0.0,-0.005207473805720072,-1.2084989009508718e-08,1.5103982065056698e-08,1.009941115626134e-05,4.892753349849954e-05,1.6954840248217806e-05,-5.194531027541416e-09,4.0399328327112016e-08,-7.251291663123993e-06,-0.00012779228563886136,0.0,-0.0,-0.01041499468373021
1142,29055020329,-23.800546646118164,61.24238586425781,0.0016778564313426614,0.9999864410163584,0.0,-0.0,-0.005207473805720072,1.767644697281412e-08,-7.015695757672802e-08,1.0805129932123236e-05,-5.2680494263768196e-05,-2.2615959096583538e-05,-1.2783419656159367e-08,2.976143605337711e-06,-8.526093552063685e-06,7.057187758618966e-05,0.0,-0.0,-0.01041499468373021
1143,29065020329,-23.800546646118164,61.24238586425781,0.0016778564313426614,0.9999864410163584,0.0,-0.0,-0.005207473805720072,1.6886678722016768e-09,2.4527256670126008e-08,9.765624781721272e-06,-2.581838316473295e-06,-3.461565711404546e-06,9.858498017933925e-09,-1.5987779988790862e-06,9.468421012570616e-06,-0.00010395051504019648,0.0,-0.0,-0.01041499468373021
1144,29075020329,-23.800546646118164,61.24238586425781,0.0016778564313426614,0.9999864410163584,0.0,-0.0,-0.005207473805720072,2.8465971801949763e-09,3.1603826222692533e-09,9.679793947725557e-06,-2.7726530333893606e-06,-3.971455953433178e-06,-1.1604022187583496e-09,1.1579292902297311e-07,-2.136687498932588e-06,-8.583083399571478e-06,0.0,-0.0,-0.01041499468373021
1145,29085020328,-23.800546646118164,61.24238586425781,0.0016778564313426614,0.9999864410163584,0.0,-0.0,-0.005207473805720072,2.9126541178925436e-09,4.5535925030648627e-10,9.489059266343247e-06,-2.562451982157654e-06,-4.108146640646737e-06,-3.8212324970920974e-10,6.605693769756726e-09,-2.7050234052694577e-07,-1.9073468138230965e-05,0.0,-0.0,-0.01041499468373021
1146,29095020328,-23.800546646118164,61.24238586425781,0.0016778564313426614,0.9999864410163584,0.0,-0.0,-0.005207473805720072,-1.153979667378735e-08,3.7045293055371076e-08,8.19206252344884e-06,4.809560050489381e-05,1.5017199984868057e-05,5.458578922201696e-09,-1.445245061404421e-06,3.658993364297203e-06,-0.00012969967792741954,0.0,-0.0,-0.01041499468373021
1147,29105020328,-23.800546646118164,61.24238586425781,0.0016778564313426614,0.9999864410163584,0.0,-0.0,-0.005207473805720072,3.1896409957710148e-09,-9.402962319882135e-08,8.153915587172378e-06,-9.024838800542057e-05,-3.475592393442639e-06,-1.3843842516791938e-08,1.4729437225469155e-06,-1.3107491213304456e-05,-3.814693627646193e-06,0.0,-0.0,-0.01041499468373021
1148,29115020328,-23.800546646118164,61.24238586425781,0.0016778564313426614,0.9999864410163584,0.0,-0.0,-0.005207473805720072,-1.0979309905678747e-08,8.363484482742933e-08,7.44819635656313e-06,4.713613452622667e-05,1.4863815522403456e-05,1.7276814645583727e-08,-1.4168950883686193e-06,1.7766447854228318e-05,-7.057192124193534e-05,0.0,-0.0,-0.01041499468373021
1149,29125020327,-23.800546646118164,61.24238586425781,0.0016778564313426614,0.9999864410163584,0.0,-0.0,-0.005207473805720072,1.9095031333904444e-08,-5.962361626643542e-08,7.591247594973538e-06,-5.305915328790434e-05,-2.4501816369593143e-05,-1.596770182743512e-08,3.007433861057507e-06,-1.4325845768325962e-05,1.4305123841040768e-05,0.0,-0.0,-0.01041499468373021
1150,29135020327,-23.800546646118164,61.24238586425781,0.0016778564313426614,0.9999864410163584,0.0,-0.0,-0.005207473805720072,-1.1591636983609988e-08,6.27692031685001e-08,6.4277646742993966e-06,4.7261932195397094e-05,1.4024225492903497e-05,1.4232039546868691e-08,-3.0686667287227465e-06,1.2239282114023808e-05,-0.00011634829570539296,0.0,-0.0,-0.01041499468373021
1151,29145020327,-23.800546646118164,61.24238586425781,0.0016778564313426614,0.9999864410163584,0.0,-0.0,-0.005207473805720072,1.947329941742737e-08,-6.273698005543338e-08,6.4373016357421875e-06,-5.3196716180536896e-05,-2.514851075829938e-05,-1.4755388910714373e-08,3.1064935228641843e-06,-1.2550617611850612e-05,9.536961442790926e-07,0.0,-0.0,-0.01041499468373021
1152,29155020327,-23.800546646118164,61.24238586425781,0.0016778564313426614,0.9999864410163584,0.0,-0.0,-0.005207473805720072,-1.1143053590956242e-08,6.248897932437103e-08,5.140304438100429e-06,4.734971298603341e-05,1.3375815797189716e-05,1.4611908127903916e-08,-3.0616351978096645e-06,1.252259698958369e-05,-0.00012969972158316523,0.0,-0.0,-0.01041499468373021
1153,29165020327,-23.800546646118164,61.24238586425781,0.0016778564313426614,0.9999864410163584,0.0,-0.0,-0.005207473805720072,5.122993584905089e-09,-2.549952959896018e-08,5.455016889754916e-06,-2.2292799712886335e-06,-6.187619419506518e-06,-9.082617324907005e-09,1.6266046714008553e-06,-8.798851013125386e-06,3.1471245165448636e-05,0.0,-0.0,-0.01041499468373021
1154,29175020326,-23.800546646118164,61.24238586425781,0.0016778564313426614,0.9999864410163584,0.0,-0.0,-0.005207473805720072,4.459545621671168e-09,-3.497016232145711e-09,6.151199158921372e-06,-1.9565425191103714e-06,-6.353035587380873e-06,1.2288835504747908e-09,-6.634479632339207e-08,2.2002514015184715e-06,6.961822509765625e-05,0.0,-0.0,-0.01041499468373021
1155,29185020326,-23.800546646118164,61.24238586425781,0.0016778564313426614,0.9999864410163584,0.0,-0.0,-0.005207473805720072,-1.0016997897821511e-08,3.6574665074340373e-08,4.301070930523565e-06,4.879670814261772e-05,1.2825534213334322e-05,5.95375482248528e-09,-1.4476543128694175e-06,4.007168172392994e-06,-0.0001850128173828125,0.0,-0.0,-0.01041499468373021
1156,29195020326,-23.800546646118164,61.24238586425781,0.0016778564313426614,0.9999864410163584,0.0,-0.0,-0.005207473805720072,5.501076483227507e-09,-2.8962221065853555e-08,4.472732598514995e-06,-6.412106472453161e-07,-6.7672958721232135e-06,-7.755980746537716e-09,1.5518073723796988e-06,-6.553688763233367e-06,1.7166166799142957e-05,0.0,-0.0,-0.01041499468373021
1157,29205020326,-23.800546646118164,61.24238586425781,0.0016788863576948643,0.9999864410163584,0.0,-0.0,-0.005207473805720072,4.273823517308983e-09,-6.877625224888106e-08,4.301070930523565e-06,-8.892254118109122e-05,-6.105350621510297e-06,-4.355622529317316e-09,-1.2272529659185238e-07,-3.981403096986469e-06,-1.7166166799142957e-05,0.0,-0.0,-0.01041499468373021
1158,29215020325,-23.800546646118164,61.24238586425781,0.0016788863576948643,0.9999864410163584,0.0,-0.0,-0.005207473805720072,5.620968579478358e-09,5.0584358035621335e-08,4.110336249141255e-06,-1.5252740013238508e-06,-7.300273409782676e-06,1.056165288559896e-08,1.34714511546008e-07,1.1936061127926223e-05,-1.9073468138230965e-05,0.0,-0.0,-0.01041499468373021
1159,29225020325,-23.800546646118164,61.24238586425781,0.0016788863576948643,0.9999864410163584,0.0,-0.0,-0.005207473805720072,-9.15561315650848e-09,4.427667121831291e-08,3.566741952454322e-06,4.939552309224382e-05,1.1741350135707762e-05,2.6008952769274174e-09,-1.4776582020203932e-06,-6.307686817308422e-07,-5.4359428759198636e-05,0.0,-0.0,-0.01041499468373021
1160,29235020325,-23.800546646118164,61.24238586425781,0.0016788863576948643,0.9999864410163584,0.0,-0.0,-0.005207473805720072,6.169151856028066e-09,-2.805760246360478e-08,3.604888888730784e-06,-3.0469763601104205e-07,-7.714573257544544e-06,-8.709958088104486e-09,1.532476517240866e-06,-7.233427368191769e-06,3.814693627646193e-06,0.0,-0.0,-0.01041499468373021
1161,29245020325,-23.800546646118164,61.24238586425781,0.0016788863576948643,0.9999864410163584,0.0,-0.0,-0.005207473805720072,-1.0145620343848805e-08,-3.06502698776967e-08,3.7288664316292852e-06,-3.673188257380389e-05,1.2926528142997995e-05,1.1943180888707161e-09,-1.631477175578766e-06,-2.5926675562004675e-07,1.2397754289850127e-05,0.0,-0.0,-0.01041499468373021
1162,29255020325,-23.800546646118164,61.24238586425781,0.0016788863576948643,0.9999864410163584,0.0,-0.0,-0.005207473805720072,6.582761002960069e-09,2.1570732755549216e-08,2.9945372261863668e-06,6.150058879939024e-07,-7.640320291102398e-06,2.6331883340446893e-09,1.6728382661312935e-06,5.2221002988517284e-06,-7.343292236328125e-05,0.0,-0.0,-0.01041499468373021
1163,29265020324,-23.800546646118164,61.24238586425781,0.0016788863576948643,0.9999864410163584,0.0,-0.0,-0.005207473805720072,-9.058764405267539e-09,4.0167478232433496e-08,2.317428425158141e-06,5.134427919983864e-05,1.1536531928868499e-05,4.2490415630425105e-09,-1.5641525124010514e-06,1.8596745121612912e-06,-6.771087646484375e-05,0.0,-0.0,-0.01041499468373021
1164,29275020324,-23.800546646118164,61.24238586425781,0.0016788863576948643,0.9999864410163584,0.0,-0.0,-0.005207473805720072,6.313153999570886e-09,-2.8435424681561017e-08,2.2220610844669864e-06,1.8020413108388311e-06,-7.94761763245333e-06,-8.197407197485518e-09,1.5371919062090456e-06,-6.860290341137443e-06,-9.536734069115482e-06,0.0,-0.0,-0.01041499468373021
1165,29285020324,-23.800546646118164,61.24238586425781,0.0016788863576948643,0.9999864410163584,0.0,-0.0,-0.005207473805720072,0.0,-0.0,0.0,0.0,-0.0,-0.0,-6.313154017334455e-07,2.8435424610506743e-06,-0.00022220611572265625,0.0,-0.0,-0.01041499468373021
1166,29295020324,-23.800546646118164,61.24238586425781,0.0016788863576948643,0.9999864410163584,0.0,-0.0,-0.005207473805720072,-1.0237913294908196e-10,-9.336961065420368e-11,2.8610227786884934e-07,-1.275863610317174e-07,1.359592118888031e-07,5.859564569665743e-12,-1.0237913627975104e-08,-9.336961426242851e-09,2.8610227673198096e-05,0.0,-0.0,-0.01041499468373021
1167,29305020323,-23.800546646118164,61.24238586425781,0.0016788863576948643,0.9999864410163584,0.0,-0.0,-0.005207473805720072,-1.9719961774633532e-10,-1.1147042316972389e-10,5.722045557376987e-07,-2.5573601192263595e-07,2.7193499363420415e-07,1.2441535648943791e-11,-9.482048923814546e-09,-1.8100811960408691e-09,2.8610227673198096e-05,0.0,-0.0,-0.01041499468373021
1168,29315020323,-23.800546646118164,61.24238586425781,0.0016788863576948643,0.9999864410163584,0.0,-0.0,-0.005207473805720072,-2.9169699988784714e-10,-1.1870171512384786e-10,8.583068620282575e-07,-3.839694784346648e-07,4.079112443378108e-07,1.4087802972795327e-11,-9.449737881084275e-09,-7.231292231679731e-10,2.8610231311176904e-05,0.0,-0.0,-0.01041499468373021
1169,29325020323,-23.800546646118164,61.24238586425781,0.0016788863576948643,0.9999864410163584,0.0,-0.0,-0.005207473805720072,-3.8616843056615835e-10,-1.2436031371354517e-10,1.1444091114753974e-06,-5.122114430378133e-07,5.438881203190249e-07,1.4398300260398678e-11,-9.44714351192033e-09,-5.658598589697306e-10,2.8610225854208693e-05,0.0,-0.0,-0.01041499468373021
1170,29335020323,-23.800546646118164,61.24238586425781,0.0016788863576948643,0.9999864410163584,0.0,-0.0,-0.005207473805720072,-4.80636364041942e-10,-1.2979506358590243e-10,1.430511474609375e-06,-6.404563350770331e-07,6.79864797348273e-07,1.4450040122793162e-11,-9.446793569622969e-09,-5.434749872357258e-10,2.8610236768145114e-05,0.0,-0.0,-0.01041499468373021
1171,29345020323,-23.800546646118164,61.24238586425781,0.0016788863576948643,0.9999864410163584,0.0,-0.0,-0.005207473805720072,-5.751038534285158e-10,-1.3519556307795e-10,1.716613724056515e-06,-7.686998060307815e-07,8.158414743775211e-07,1.4456497630932486e-11,-9.446749160701984e-09,-5.400499492047572e-10,2.8610225854208693e-05,0.0,-0.0,-0.01041499468373021
1172,29355020322,-23.800546646118164,61.24238586425781,0.0016788863576948643,0.9999864410163584,0.0,-0.0,-0.005207473805720072,-6.695713428150896e-10,-1.4059206576710892e-10,2.002715973503655e-06,-8.969430496108544e-07,9.518182650936069e-07,1.4457666834555294e-11,-9.446749160701984e-09,-5.396502689158922e-10,2.8610225854208693e-05,0.0,-0.0,-0.01041499468373021
1173,29365020322,-23.800546646118164,61.24238586425781,0.0016788863576948643,0.9999864410163584,0.0,-0.0,-0.005207473805720072,1.4689009120161245e-08,2.647797359145443e-08,1.115798909268051e-06,3.5341294278623536e-05,-1.9446151782176457e-05,3.0580268872704153e-10,1.5358580185420578e-06,2.661856569829979e-06,-8.869170414982364e-05,0.0,-0.0,-0.01041499468373021
1174,29375020322,-23.800546646118164,61.24238586425781,0.0016788863576948643,0.9999864410163584,0.0,-0.0,-0.005207473805720072,-1.9549144525399242e-09,-2.3076644595221296e-08,1.058578504853358e-06,-3.132149458906497e-06,1.048942749548587e-06,-2.241276275682935e-09,-1.664392357270117e-06,-4.9554619181435555e-06,-5.722040441469289e-06,0.0,-0.0,-0.01041499468373021
1175,29385020322,-23.800546646118164,61.24238586425781,0.0016788863576948643,0.9999864410163584,0.0,-0.0,-0.005207473805720072,-9.160675551456166e-10,-4.636389050460821e-09,1.306533818024036e-06,-4.879099378740648e-06,1.226964400302677e-06,1.3523521191771692e-09,1.0388468751898472e-07,1.8440255189489108e-06,2.47955322265625e-05,0.0,-0.0,-0.01041499468373021
1176,29395020321,-23.800546646118164,61.24238586425781,0.0016788863576948643,0.9999864410163584,0.0,-0.0,-0.005207473805720072,-9.676482948250964e-10,-2.04079020349468e-09,1.554489131194714e-06,-6.50728497930686e-06,1.402229827363044e-06,3.8940750624050224e-10,-5.158073967947985e-09,2.5955989713111194e-07,2.47955322265625e-05,0.0,-0.0,-0.01041499468373021
1177,29405020321,-23.800546646118164,61.24238586425781,0.0016788863576948643,0.9999864410163584,0.0,-0.0,-0.005207473805720072,-1.313443021011551e-09,-1.2027501217204417e-09,1.8119811784345075e-06,-7.394597560050897e-06,1.895203808999213e-06,1.6784344747389213e-10,-3.457947173046705e-08,8.38040108419591e-08,2.5749204723979346e-05,0.0,-0.0,-0.01041499468373021
1178,29415020321,-23.800546646118164,61.24238586425781,0.0016788863576948643,0.9999864410163584,0.0,-0.0,-0.005207473805720072,-1.6518182377467383e-09,-1.1161277457816254e-09,2.069473111987463e-06,-8.276281732833013e-06,2.3881441393314162e-06,7.358202241958267e-11,-3.383752300578635e-08,8.662237149792418e-09,2.5749193810042925e-05,0.0,-0.0,-0.01041499468373021
1179,29425020321,-23.800546646118164,61.24238586425781,0.0016788863576948643,0.9999864410163584,0.0,-0.0,-0.005207473805720072,-1.1136951361123693e-09,6.335570645887856e-08,1.5640258652638295e-06,7.889873086242005e-05,1.6530102584511042e-06,5.980770101388089e-09,5.3812311051615325e-08,6.44718329567695e-06,-5.054472421761602e-05,0.0,-0.0,-0.01041499468373021
1180,29435020320,-23.800546646118164,61.24238586425781,0.0016788863576948643,0.9999864410163584,0.0,-0.0,-0.005207473805720072,-1.6330223839844393e-09,1.1417646383904412e-08,1.7738342421580455e-06,7.78063913458027e-05,1.7150783833130845e-06,-4.186299751296474e-09,-5.193272301085017e-08,-5.193805918679573e-06,2.0980838598916307e-05,0.0,-0.0,-0.01041499468373021
1181,29445020320,-23.800546646118164,61.24238586425781,0.0016788863576948643,0.9999864410163584,0.0,-0.0,-0.005207473805720072,-1.7378706473891725e-08,-3.322768904467921e-08,2.4127959932229714e-06,2.5726518288138323e-05,2.2538453777087852e-05,-2.3689425976414213e-09,-1.574568386786268e-06,-4.464533503778512e-06,6.389617192326114e-05,0.0,-0.0,-0.01041499468373021
1182,29455020320,-23.800546646118164,61.24238586425781,0.0016788863576948643,0.9999864410163584,0.0,-0.0,-0.005207473805720072,1.4235570056086999e-08,-4.996304703297483e-09,1.7642973944020923e-06,2.3617740225745365e-05,-1.7676427887636237e-05,-2.10882333817608e-09,3.1614276849722955e-06,2.8231384021637496e-06,-6.484986079158261e-05,0.0,-0.0,-0.01041499468373021
1183,29465020320,-23.800546646118164,61.24238586425781,0.0016788863576948643,0.9999864410163584,0.0,-0.0,-0.005207473805720072,1.2201727628280423e-08,-2.0286299307059608e-09,1.964569037227193e-06,2.057207893813029e-05,-1.7573942386661656e-05,3.5305267043206356e-10,-2.0338424633337127e-07,2.967674674891896e-07,2.0027164282510057e-05,0.0,-0.0,-0.01041499468373021
1184,29475020320,-23.800546646118164,61.24238586425781,0.0016788863576948643,0.9999864410163584,0.0,-0.0,-0.005207473805720072,1.153523498942377e-08,-6.522562046029634e-08,1.3923644246460753e-06,-6.914586992934346e-05,-1.6656229490763508e-05,-5.798857394267998e-09,-6.664926388566528e-08,-6.319699423329439e-06,-5.722046262235381e-05,0.0,-0.0,-0.01041499468373021
1185,29485020319,-23.800546646118164,61.24238586425781,0.0016788863576948643,0.9999864410163584,0.0,-0.0,-0.005207473805720072,1.1982144165756381e-08,-1.3746793925406564e-08,1.5449523971255985e-06,-7.132120663300157e-05,-1.658376640989445e-05,4.1720040755421905e-09,4.469091763326105e-08,5.147882802702952e-06,1.5258796338457614e-05,0.0,-0.0,-0.01041499468373021
1186,29495020319,-23.800546646118164,61.24238586425781,0.0016788863576948643,0.9999864410163584,0.0,-0.0,-0.005207473805720072,-2.802230447684906e-09,3.101738954569555e-08,2.117157009706716e-06,-2.210258571722079e-05,3.1471397505811183e-06,6.739106606090672e-09,-1.4784374116061372e-06,4.476418325793929e-06,5.722046262235381e-05,0.0,-0.0,-0.01041499468373021
1187,29505020319,-23.800546646118164,61.24238586425781,0.0016788863576948643,0.9999864410163584,0.0,-0.0,-0.005207473805720072,-2.3771227208868595e-09,2.929434694820543e-09,7.820129326319147e-07,-2.277226303704083e-05,3.6125911719864234e-06,-2.0062833616663056e-09,4.251077356798305e-08,-2.808795443343115e-06,-0.00013351441884879023,0.0,-0.0,-0.01041499468373021
1188,29515020319,-23.800546646118164,61.24238586425781,0.0016788863576948643,0.9999864410163584,0.0,-0.0,-0.005207473805720072,-2.722616132544431e-09,-1.2009981897875832e-09,8.964538551481382e-07,-2.3683003746555187e-05,4.0787381294649094e-06,-5.44097933374843e-10,-3.454934116575714e-08,-4.1304329556624e-07,1.1444091796875e-05,0.0,-0.0,-0.01041499468373021
1189,29525020318,-23.800546646118164,61.24238586425781,0.0016788863576948643,0.9999864410163584,0.0,-0.0,-0.005207473805720072,-3.0505655779222707e-09,-1.8339277874090953e-09,1.0108947208209429e-06,-2.4619948817417026e-05,4.545127012534067e-06,-6.861231027777137e-11,-3.279494364960556e-08,-6.329295842988358e-08,1.144408633990679e-05,0.0,-0.0,-0.01041499468373021
1190,29535020318,-23.800546646118164,61.24238586425781,0.0016788863576948643,0.9999864410163584,0.0,-0.0,-0.005207473805720072,-3.372379930866032e-09,-1.9622345970304877e-09,1.1253356433371664e-06,-2.556067192927003e-05,5.011556822864804e-06,2.65379003494548e-11,-3.2181436182554535e-08,-1.283068051805003e-08,1.1444091796875e-05,0.0,-0.0,-0.01041499468373021
1191,29545020318,-23.800546646118164,61.24238586425781,0.0016788863576948643,0.9999864410163584,0.0,-0.0,-0.005207473805720072,-3.6931975255782845e-09,-2.0177279846933516e-09,1.23977656585339e-06,-2.6501935280975886e-05,5.477992544911103e-06,4.3061401666655286e-11,-3.208175769486843e-08,-5.5493387662863825e-09,1.1444091796875e-05,0.0,-0.0,-0.01041499468373021
1192,29555020318,-23.800546646118164,61.24238586425781,0.0016788863576948643,0.9999864410163584,0.0,-0.0,-0.005207473805720072,1.1507723662873559e-08,2.5551251781052997e-08,1.6689300537109375e-06,1.0274957276124042e-05,-1.4681455468235072e-05,4.204276093933146e-10,1.5200921552604996e-06,2.7568980840442237e-06,4.291534787626006e-05,0.0,-0.0,-0.01041499468373021
1193,29565020318,-23.800546646118164,61.24238586425781,0.0016788863576948643,0.9999864410163584,0.0,-0.0,-0.005207473805720072,-5.263556257517621e-09,-2.3705711171828625e-08,1.4781951449549524e-06,-2.74680060101673e-05,5.996614618197782e-06,-2.1839052788408253e-09,-1.6771278978922055e-06,-4.925695975543931e-06,-1.9073489966103807e-05,0.0,-0.0,-0.01041499468373021
1194,29575020317,-23.800546646118164,61.24238586425781,0.0016788863576948643,0.9999864410163584,0.0,-0.0,-0.005207473805720072,1.0861515242766018e-08,2.2727030923874736e-08,1.9073486328125e-06,9.649637831898872e-06,-1.3866888366464991e-05,1.8303011328768548e-09,1.612507048776024e-06,4.643274223781191e-06,4.291534787626006e-05,0.0,-0.0,-0.01041499468373021
1195,29585020317,-23.800546646118164,61.24238586425781,0.0016788863576948643,0.9999864410163584,0.0,-0.0,-0.005207473805720072,-6.058190837876509e-09,-2.3784446412378202e-08,1.716613724056515e-06,-2.763176780717913e-05,7.104382802936016e-06,-1.7607265645480652e-09,-1.6919706240514643e-06,-4.651147719414439e-06,-1.9073489966103807e-05,0.0,-0.0,-0.01041499468373021
1196,29595020317,-23.800546646118164,61.24238586425781,0.0016788863576948643,0.9999864410163584,0.0,-0.0,-0.005207473805720072,1.0085249080304948e-08,2.2715148872975988e-08,2.1457672119140625e-06,9.485373084316961e-06,-1.2759086530422792e-05,1.8775350163480198e-09,1.6143440006999299e-06,4.649959464586573e-06,4.291534787626006e-05,0.0,-0.0,-0.01041499468373021
1197,29605020317,-23.800546646118164,61.24238586425781,0.0016788863576948643,0.9999864410163584,0.0,-0.0,-0.005207473805720072,-6.239361916016151e-09,4.0921470656485326e-08,1.182556161438697e-06,6.055237099644728e-05,7.359531537076691e-06,4.233081885018919e-09,-1.6324611351592466e-06,1.8206321783509338e-06,-9.632110595703125e-05,0.0,-0.0,-0.01041499468373021
1198,29615020316,-23.800546646118164,61.24238586425781,0.0016788863576948643,0.9999864410163584,0.0,-0.0,-0.005207473805720072,-6.060543622510295e-09,8.222738934193785e-09,1.2493132999225054e-06,6.0401380324037746e-05,8.063524546741974e-06,-2.659496178836207e-09,1.7881829350585576e-08,-3.2698733321012696e-06,6.675713848380838e-06,0.0,-0.0,-0.01041499468373021
1199,29625020316,-23.800546646118164,61.24238586425781,0.0016788863576948643,0.9999864410163584,0.0,-0.0,-0.005207473805720072,-6.345768799320695e-09,3.008314042318716e-09,1.325607286162267e-06,5.9378482546890154e-05,8.449628694506828e-06,-7.203200813599153e-10,-2.852251768103997e-08,-5.214424732002954e-07,7.629398169228807e-06,0.0,-0.0,-0.01041499468373021
1200,29635020316,-23.800546646118164,61.24238586425781,0.0016788863576948643,0.9999864410163584,0.0,-0.0,-0.005207473805720072,-6.3778400338776464e-09,1.7730104051594253e-09,1.3923644246460753e-06,5.772135409642942e-05,8.517089554516133e-06,-1.8448895189315806e-10,-3.207123455695182e-09,-1.23530369933178e-07,6.675713848380838e-06,0.0,-0.0,-0.01041499468373021
1201,29645020316,-23.800546646118164,61.24238586425781,0.0016788863576948643,0.9999864410163584,0.0,-0.0,-0.005207473805720072,-2.1989055909443778e-08,-3.556273853178027e-08,1.8882750509874313e-06,5.403790510172257e-06,2.9288583391462453e-05,-1.292516316198089e-09,-1.5611215076205553e-06,-3.7335748857003637e-06,4.9591064453125e-05,0.0,-0.0,-0.01041499468373021
1202,29655020316,-23.800546646118164,61.24238586425781,0.0016788863576948643,0.9999864410163584,0.0,-0.0,-0.005207473805720072,-5.394133584246674e-09,3.04902094683257e-08,1.5449523971255985e-06,5.3298354032449424e-05,8.986965440271888e-06,3.695396877390067e-09,1.6594922271906398e-06,6.605294856854016e-06,-3.433226447668858e-05,0.0,-0.0,-0.01041499468373021
1203,29665020315,-23.800546646118164,61.24238586425781,0.0016788863576948643,0.9999864410163584,0.0,-0.0,-0.005207473805720072,8.54372927960867e-09,-2.279123201276434e-08,1.9359588350198464e-06,1.3214203136158176e-05,-1.1062785233661998e-05,-6.61175514338197e-09,1.3937861922386219e-06,-5.328143743099645e-06,3.910064333467744e-05,0.0,-0.0,-0.01041499468373021
1204,29675020315,-23.800546646118164,61.24238586425781,0.0016788863576948643,0.9999864410163584,0.0,-0.0,-0.005207473805720072,7.547203750846165e-09,-1.420716166933289e-08,1.2683867680607364e-06,-2.508480747565045e-06,-1.0909529919445049e-05,2.704850787793589e-10,-9.965255287625041e-08,8.584070201322902e-07,-6.675720942439511e-05,0.0,-0.0,-0.01041499468373021
1205,29685020315,-23.800546646118164,61.24238586425781,0.0016788863576948643,0.9999864410163584,0.0,-0.0,-0.005207473805720072,7.563694559564738e-09,-4.291154986901802e-09,1.325607286162267e-06,-5.4213846851780545e-06,-1.0804760677274317e-05,9.558178692969932e-10,1.6490808718572225e-09,9.91600700217532e-07,5.7220518101530615e-06,0.0,-0.0,-0.01041499468373021
1206,29695020315,-23.800546646118164,61.24238586425781,0.0016788863576948643,0.9999864410163584,0.0,-0.0,-0.005207473805720072,7.28764559809747e-09,-2.4940975951182054e-09,1.3828276905769599e-06,-7.607400220877025e-06,-1.0382163964095525e-05,3.0594676792006226e-10,-2.7604896146726787e-08,1.7970573651382438e-07,5.722040441469289e-06,0.0,-0.0,-0.01041499468373021
1207,29705020314,-23.800546646118164,61.24238586425781,0.0016788863576948643,0.9999864410163584,0.0,-0.0,-0.005207473805720072,0.0,-0.0,0.0,0.0,-0.0,-0.0,-7.287645757969585e-07,2.494097657290695e-07,-0.00013828277587890625,0.0,-0.0,-0.01041499468373021
1208,29715020314,-23.800546646118164,61.24238586425781,0.0016788863576948643,0.9999864410163584,0.0,-0.0,-0.005207473805720072,-3.170566309496081e-10,-1.5823077292864696e-09,4.768371297814156e-08,-2.1606992959277704e-06,4.223240068768064e-07,-1.0320665849716804e-10,-3.170566387211693e-08,-1.5823077603727143e-07,4.768371127283899e-06,0.0,-0.0,-0.01041499468373021
1209,29725020314,-23.800546646118164,61.24238586425781,0.0016788863576948643,0.9999864410163584,0.0,-0.0,-0.005207473805720072,-6.01834526658962e-10,-1.8997710071744223e-09,1.0490417423625331e-07,-4.330874162405962e-06,8.447779578091286e-07,2.7020426911564255e-13,-2.8477789015823873e-08,-3.174632823288448e-08,5.7220458984375e-06,0.0,-0.0,-0.01041499468373021
1210,29735020314,-23.800546646118164,61.24238586425781,0.0016788863576948643,0.9999864410163584,0.0,-0.0,-0.005207473805720072,-8.837362508451463e-10,-2.0346968554463274e-09,1.6212463549436507e-07,-6.50241690891562e-06,1.2672480806941167e-06,2.756437439410675e-11,-2.819017197452922e-08,-1.3492584827190512e-08,5.7220458984375e-06,0.0,-0.0,-0.01041499468373021
1211,29745020314,-23.800546646118164,61.24238586425781,0.0016788863576948643,0.9999864410163584,0.0,-0.0,-0.005207473805720072,-1.4055715480409958e-09,-1.6579243533598742e-09,2.0980834847250662e-07,-8.01173155196011e-06,2.0081545244465815e-06,1.1263870391964304e-10,-5.218353038571877e-08,3.767724976455611e-08,4.768371127283899e-06,0.0,-0.0,-0.01041499468373021
1212,29755020313,-23.800546646118164,61.24238586425781,0.0016788863576948643,0.9999864410163584,0.0,-0.0,-0.005207473805720072,-1.914445046935498e-09,-1.6627803578472822e-09,2.5749204723979346e-07,-9.518186743662227e-06,2.749058694462292e-06,8.368836873495766e-11,-5.0887351221717836e-08,-4.856004487407972e-10,4.7683697630418465e-06,0.0,-0.0,-0.01041499468373021
1213,29765020313,-23.800546646118164,61.24238586425781,0.0016788863576948643,0.9999864410163584,0.0,-0.0,-0.005207473805720072,-2.4235755624602007e-09,-1.7226804427394882e-09,3.0517577442878974e-07,-1.102423539123265e-05,3.489957634883467e-06,7.557523357126783e-11,-5.091305155247028e-08,-5.9900084892205996e-09,4.768372491525952e-06,0.0,-0.0,-0.01041499468373021
1214,29775020313,-23.800546646118164,61.24238586425781,0.0016788863576948643,0.9999864410163584,0.0,-0.0,-0.005207473805720072,-2.6842879030652966e-09,-1.198204535590719e-09,3.433227391269611e-07,-1.1721263945219107e-05,3.9004694372124504e-06,9.407429696350889e-11,-2.6071234060509596e-08,5.2447589382609294e-08,3.8146963561302982e-06,0.0,-0.0,-0.01041499468373021
1215,29785020313,-23.800546646118164,61.24238586425781,0.0016788863576948643,0.9999864410163584,0.0,-0.0,-0.005207473805720072,-2.718039349147716e-09,-6.46827646999526e-10,3.8146970382513246e-07,-1.1728389836207498e-05,3.9815249692765065e-06,6.6116674635186e-11,-3.3751446082419534e-09,5.513768996934232e-08,3.8146963561302982e-06,0.0,-0.0,-0.01041499468373021
1216,29795020312,-23.800546646118164,61.24238586425781,0.0016788863576948643,0.9999864410163584,0.0,-0.0,-0.005207473805720072,-2.773299145886199e-09,-5.668944758063788e-10,4.1961669694501325e-07,-1.1731983249774203e-05,4.062515472469386e-06,2.2082792192068545e-11,-5.525979673848269e-09,7.993317119314725e-09,3.8146990846144035e-06,0.0,-0.0,-0.01041499468373021
1217,29805020312,-23.800521850585938,61.24238586425781,0.0016799544682726264,0.9999864512798754,1.7243166072570816e-07,8.335786815263419e-07,-0.005205502469192978,0.002727947197854519,4.562496906146407e-05,8.48770127959142e-07,-0.0007063727825880051,-0.008477011695504189,0.022905167192220688,0.2727949917316437,0.004562553483992815,4.291534423828125e-05,3.361802572253633e-07,1.6689299620762925e-06,-0.010411051956960132
1218,29815020312,-23.797775268554688,61.24235153198242,0.0016562652308493853,0.9999864552419698,-2.3807473417868185e-08,-3.457103689931524e-05,-0.0052046265420857005,0.2716694176197052,-0.0028240338433533907,-8.106231348392612e-07,0.00434557581320405,0.40424641966819763,0.010032623074948788,26.894145965576172,-0.28696587681770325,-0.0001659393310546875,3.122443713107497e-07,-6.914138515907603e-05,-0.010409300096305564
1219,29825020312,-23.792428970336914,61.2422981262207,0.0016178512014448643,0.9999864539251725,-3.358148279678135e-07,-9.173104113954923e-05,-0.0052041859557701966,0.5299671292304993,-0.005528494715690613,-7.438659395120339e-07,0.0069814203307032585,0.6546800136566162,0.005059140734374523,25.829771041870117,-0.2704460918903351,6.675719305349048e-06,2.831502387884284e-07,-0.00018346309340281521,-0.010408418964491776
1220,29835020312,-23.784643173217773,61.24221420288086,0.001569785992614925,0.9999864461683027,-7.200473883492045e-07,-0.00016313637218508663,-0.005203927910136838,0.7725940346717834,-0.008056837134063244,-3.9100646631595737e-07,0.008672881871461868,0.8193056583404541,0.0029577421955764294,24.262691497802734,-0.2528342306613922,3.528594606905244e-05,2.57824596572188e-07,-0.0003262758220627087,-0.010407902977030573
1221,29845020311,-23.774723052978516,61.24211120605469,0.001517448341473937,0.9999864312464819,-1.1350445647686195e-06,-0.00024133654726177253,-0.005203756172979807,0.9853705167770386,-0.010270550847053528,-3.7193296975601697e-06,0.009406989440321922,0.8949118852615356,0.0019292437937110662,21.27764892578125,-0.2213713675737381,-0.0003328323073219508,2.4165479605096526e-07,-0.0004826783769838904,-0.010407559678921305
1222,29855020311,-23.762842178344727,61.24198913574219,0.0014632033417001367,0.9999864091008438,-1.5595749507183208e-06,-0.00032192091854414006,-0.0052036504580800095,1.1816762685775757,-0.012312526814639568,-2.4509429294994334e-06,0.009675868786871433,0.9239279627799988,0.0012115186545997858,19.63057518005371,-0.20419760048389435,0.00012683868408203125,2.3122040903591105e-07,-0.0006438493621483794,-0.01040734849856924
1223,29865020311,-23.74979591369629,61.24185562133789,0.0014153289375826716,0.9999863840758266,-1.9345302788341854e-06,-0.0003931474578944842,-0.005203565535959161,1.2984740734100342,-0.01352832280099392,-1.2111663636460435e-06,0.008543787524104118,0.8161301612854004,0.0009702002280391753,11.679780960083008,-0.1215796023607254,0.0001239776611328125,2.2252931685830648e-07,-0.0007863044235925374,-0.010407178930109208
1224,29875020311,-23.734813690185547,61.24169921875,0.0013650512555614114,0.9999863519395795,-2.328151695251216e-06,-0.00046795022820294576,-0.00520355183841442,1.4920926094055176,-0.01554485410451889,-1.7070769899873994e-06,0.00897341687232256,0.8573786020278931,0.00016659393440932035,19.361854553222656,-0.2016531229019165,-4.9591064453125e-05,2.1376679313386268e-07,-0.0009359120491284296,-0.010407151882379386
1225,29885020310,-23.71829605102539,61.24152374267578,0.0013177490327507257,0.9999863164795004,-2.688740102452377e-06,-0.0005385212141979886,-0.005203541239667262,1.6459615230560303,-0.01714816689491272,-1.802444444365392e-06,0.008334916085004807,0.8081574440002441,0.00010552151798037812,15.38689136505127,-0.16033127903938293,-9.536744983051904e-06,2.2702820266765694e-07,-0.001077055880843495,-0.01040713107643337
1226,29895020310,-23.70049285888672,61.241336822509766,0.001275024376809597,0.9999862803057297,-3.01784069152457e-06,-0.000602118505230333,-0.005203522317513898,1.7750669717788696,-0.018489133566617966,-3.166198666804121e-06,0.007566260173916817,0.7290092706680298,0.00022455454745795578,12.910545349121094,-0.1340966671705246,-0.00013637542724609375,2.3067575142810058e-07,-0.0012042521865722462,-0.010407093625730541
1227,29905020310,-23.681415557861328,61.24113464355469,0.0012363052228465676,0.9999862439765062,-3.319027459095842e-06,-0.0006598150016127113,-0.005203507558098596,1.9029511213302612,-0.019819246605038643,-4.94956975671812e-06,0.006893523503094912,0.661298394203186,0.00016231619520112872,12.78841495513916,-0.13301131129264832,-0.00017833711171988398,2.2874128989763211e-07,-0.0013196467745533519,-0.010407064497406119
1228,29915020310,-23.661638259887695,61.24093246459961,0.0012057876447215676,0.9999862131667941,-3.5516845182040445e-06,-0.0007051139446046008,-0.005203487104382553,1.9740949869155884,-0.020562095567584038,-6.9141387939453125e-06,0.005365266930311918,0.5188770890235901,0.00023918245278764516,7.114386558532715,-0.07428489625453949,-0.0001964569091796875,2.348317658126228e-07,-0.001410245876369599,-0.010407023925811387
1229,29925020310,-23.640676498413086,61.2407112121582,0.0011777114123106003,0.9999861827345476,-3.7701662381626397e-06,-0.000746777007627702,-0.005203522833105995,2.0928800106048584,-0.021801594644784927,-5.5122372941696085e-06,0.004989522509276867,0.47759220004081726,-0.0004223644791636616,11.878501892089844,-0.12394990772008896,0.0001401901536155492,2.3151438953534714e-07,-0.0014935731700160058,-0.010407095706325142
1230,29935020309,-23.619047164916992,61.24048614501953,0.0011561583960428834,0.9999861571906664,-3.934491602822684e-06,-0.0007788438717195431,-0.005203730756585172,2.160045623779297,-0.022498711943626404,-5.302429144649068e-06,0.0037887725047767162,0.3670072853565216,-0.0023627488408237696,6.716561317443848,-0.06971172988414764,2.098081495205406e-05,2.3691363030841323e-07,-0.0015577077586854033,-0.010407511825245469
1231,29945020309,-23.596452713012695,61.24025344848633,0.001137695275247097,0.9999861358122267,-4.0752720247247035e-06,-0.0008065000036816315,-0.005203626088337813,2.2571098804473877,-0.023507336154580116,-7.82012921263231e-06,0.0032622800208628178,0.3168075680732727,0.0011701612966135144,9.706425666809082,-0.10086242109537125,-0.00025177001953125,2.430181861749698e-07,-0.001613020756281076,-0.010407302725488005
1232,29955020309,-23.573238372802734,61.240013122558594,0.0011239623418077826,0.9999861214355202,-4.176184904863814e-06,-0.000826824945541071,-0.005203198959658407,2.3198068141937256,-0.024161458015441895,-7.009506134636467e-06,0.0023720215540379286,0.23287491500377655,0.004914744757115841,6.269693374633789,-0.06541218608617783,8.106230961857364e-05,2.520158466779312e-07,-0.0016536711535332883,-0.010406448641404038
1233,29965020309,-23.549238204956055,61.23976516723633,0.0011132430518046021,0.9999861068678595,-4.2653811193311785e-06,-0.0008426199138059701,-0.0052034646870513365,2.3985726833343506,-0.02498616836965084,-5.674362000718247e-06,0.001968984492123127,0.18172402679920197,-0.0030644373036921024,7.8765869140625,-0.08247103542089462,0.00013351441884879023,2.3844255113695983e-07,-0.0016852616015927272,-0.010406980233324753
1234,29975020308,-23.52463722229004,61.23950958251953,0.0011059569660574198,0.9999860941537806,-4.315700028592246e-06,-0.000853348639586924,-0.005204159542159243,2.4591338634490967,-0.02561296336352825,-4.5204160414868966e-06,0.0012107130605727434,0.12304094433784485,-0.007946811616420746,6.056118011474609,-0.06267949938774109,0.00011539459228515625,2.5064526577821153e-07,-0.0017067192938679302,-0.010408370070518638
1235,29985020308,-23.499366760253906,61.2392463684082,0.0011013412149623036,0.9999860891663191,-4.346764526469912e-06,-0.0008602627099435131,-0.005203979537435651,2.5264358520507812,-0.026312699541449547,-3.7002562294219388e-06,0.0007646515732631087,0.07870886474847794,0.0020745410583913326,6.730198860168457,-0.06997361779212952,8.201598393497989e-05,2.6017134511733533e-07,-0.001720547575776139,-0.010408010127652557
1236,29995020308,-23.47356414794922,61.23897933959961,0.0010994720505550504,0.9999860891614561,-4.353369771510191e-06,-0.0008630045451899137,-0.005203526475336932,2.580158233642578,-0.026877645403146744,-3.82423377232044e-06,0.00024217907048296183,0.031276628375053406,0.005184994079172611,5.3722381591796875,-0.056494586169719696,-1.2397754289850127e-05,2.7471598270590344e-07,-0.0017260312429230452,-0.01040710402870355
1237,30005020308,-23.447145462036133,61.238704681396484,0.0010994338663294911,0.9999860891614561,-4.353369771510191e-06,-0.0008630045451899137,-0.005203526475336932,2.641803741455078,-0.02752249501645565,-3.128051730527659e-06,7.74864965933375e-05,4.529002126218984e-06,-0.0014379192143678665,6.16455078125,-0.06448496133089066,6.961820326978341e-05,2.7471598270590344e-07,-0.0017260312429230452,-0.01040710402870355
1238,30015020308,-23.420257568359375,61.238426208496094,0.0011016845237463713,0.9999860899845681,-4.344727965287953e-06,-0.000859607064526073,-0.0052039306483805,2.6890947818756104,-0.0280134454369545,-1.8596648487800849e-06,-0.00038117755320854485,-0.038752004504203796,-0.0032114521600306034,4.729104042053223,-0.049095042049884796,0.00012683868408203125,2.573364175074117e-07,-0.0017192362810284651,-0.01040791233970628
1239,30025020307,-23.392805099487305,61.23814010620117,0.0011051940964534879,0.9999860942251355,-4.3222589889510325e-06,-0.0008543619333726619,-0.005203979569828791,2.745614528656006,-0.02860182709991932,-2.0313261757110013e-06,-0.0005747152026742697,-0.06048588454723358,-0.0005380538059398532,5.651974678039551,-0.058838166296482086,-1.716613223834429e-05,2.4776668555633065e-07,-0.001708745923047075,-0.010408010127652557
1240,30035020307,-23.36492919921875,61.237850189208984,0.0011105346493422985,0.9999861010315786,-4.2822400908879775e-06,-0.0008464345816089197,-0.005203967123554479,2.788322925567627,-0.02904685027897358,-1.2779235021298518e-06,-0.0009268519352190197,-0.09042077511548996,0.000128246916574426,4.270839691162109,-0.044502317905426025,7.534027099609375e-05,2.452746769922665e-07,-0.0016928910119597214,-0.010407985160517337
1241,30045020307,-23.336532592773438,61.237552642822266,0.0011166381882503629,0.9999861084627066,-4.239627355900832e-06,-0.0008373151769049852,-0.005204014501519969,2.84041166305542,-0.029589612036943436,-1.077651972991589e-06,-0.0010335794650018215,-0.10459168255329132,-0.0005489965551532805,5.208873748779297,-0.054276175796985626,2.0027153368573636e-05,2.3566405444903921e-07,-0.0016746519995332314,-0.010408079827571711
1242,30055020307,-23.307748794555664,61.23725509643555,0.0011241149622946978,0.9999861173592669,-4.181574724785413e-06,-0.0008262288844003379,-0.005204076967447851,2.8794307708740234,-0.02999485470354557,-1.363754222438729e-06,-0.0013303502928465605,-0.12736402451992035,-0.0006911860546097159,3.9019107818603516,-0.04052426666021347,-2.8610225854208693e-05,2.3648439020661786e-07,-0.0016524791028637202,-0.010408204663247808
1243,30065020306,-23.278478622436523,61.2369499206543,0.0011320494813844562,0.9999861267886523,-4.1126471985201635e-06,-0.0008143677467006785,-0.005204134749283058,2.9278788566589355,-0.03050117753446102,-1.8119811784345075e-06,-0.0014924017013981938,-0.13540157675743103,-0.0006774664507247508,4.844808578491211,-0.050632283091545105,-4.482269650907256e-05,2.509790257123985e-07,-0.0016287564232903239,-0.010408320136248199
1244,30075020306,-23.248849868774414,61.23664474487305,0.0011407851707190275,0.9999861372665997,-4.043307553591889e-06,-0.0008010164954858639,-0.005204193583139394,2.9639010429382324,-0.030876049771904945,-1.8692015828492003e-06,-0.0015868820482864976,-0.15256185829639435,-0.0006557231536135077,3.6022186279296875,-0.037487223744392395,-5.722040441469289e-06,2.507871288302342e-07,-0.001602053552024426,-0.01040843768984319
1245,30085020306,-23.218769073486328,61.236331939697266,0.0011499023530632257,0.9999861477134436,-3.974228693652563e-06,-0.0007874268164794864,-0.005204260220374281,3.0093374252319336,-0.03135169297456741,1.3828276905769599e-06,-0.0016014868160709739,-0.15561209619045258,-0.0007512021693401039,4.543638229370117,-0.047564320266246796,0.00032520294189453125,2.476011389781115e-07,-0.0015748738344832681,-0.010408570847897695
1246,30095020306,-23.188350677490234,61.23601531982422,0.0011597824050113559,0.9999861587591773,-3.89976287309897e-06,-0.0007728239023731302,-0.005204326860721539,3.0429317951202393,-0.03170168027281761,7.915496667010302e-07,-0.001734795281663537,-0.1682938039302826,-0.0007625995203852654,3.3594369888305664,-0.034998729825019836,-5.912780397920869e-05,2.4463888860436625e-07,-0.001545667617800128,-0.010408704005952198
1247,30105020306,-23.15750503540039,61.23569107055664,0.0011696242727339268,0.9999861696423396,-3.821787753399141e-06,-0.0007581613185168328,-0.005204392457453952,3.085857391357422,-0.03214931860566139,6.866454782539222e-07,-0.0017639206489548087,-0.1675710827112198,-0.0007682783179916441,4.292559623718262,-0.04476383328437805,-1.0490419299458154e-05,2.480685870206273e-07,-0.0015163420270017198,-0.010408835083412102
1248,30115020305,-23.1263427734375,61.2353630065918,0.0011800002539530396,0.9999861808274663,-3.7466178654042356e-06,-0.0007428431288440822,-0.005204452338804243,3.1174867153167725,-0.03247668966650963,1.1920928955078125e-06,-0.0017883299151435494,-0.17676475644111633,-0.0006972286500968039,3.1629323959350586,-0.03273710608482361,5.054474240751006e-05,2.3905140189486316e-07,-0.0014857052714928006,-0.010408954717601695
1249,30125020305,-23.094772338867188,61.23503875732422,0.0011901473626494408,0.9999861917778978,-3.6658176240807613e-06,-0.0007275845911298937,-0.005204503891983749,3.1583192348480225,-0.03289986401796341,1.306533818024036e-06,-0.0018182549392804503,-0.17310573160648346,-0.0005812139133922756,4.083251953125,-0.04231743514537811,1.1444091796875e-05,2.418999173723633e-07,-0.0014551877600619868,-0.010409057707034475
1250,30135020305,-23.06290054321289,61.23470687866211,0.0012006759643554688,0.9999862026906607,-3.5813994175566917e-06,-0.0007119684001087495,-0.00520456688722271,3.1883544921875,-0.033215343952178955,1.2683867680607364e-06,-0.0019062344217672944,-0.17961573600769043,-0.0007194805657491088,3.003525733947754,-0.031547993421554565,-3.814704996329965e-06,2.482745638543575e-07,-0.0014239549141997021,-0.010409183583007874
1251,30145020305,-23.0306396484375,61.23436737060547,0.0012108993250876665,0.9999862130770224,-3.5069518882162674e-06,-0.0006967693868058065,-0.005204628324739619,3.2274351119995117,-0.03362274914979935,1.9168853668816155e-06,-0.0017556874081492424,-0.17374056577682495,-0.0007012418936938047,3.908061981201172,-0.040740519762039185,6.484986079158261e-05,2.390445285926895e-07,-0.0013935565168098313,-0.010409306338089369
1252,30155020304,-22.998090744018555,61.234031677246094,0.001221351558342576,0.9999862235166762,-3.4210650195206936e-06,-0.000681212825921645,-0.005204681953582277,3.2561793327331543,-0.03391958773136139,7.820129326319147e-07,-0.0019129607826471329,-0.17831109464168549,-0.0006196416798047721,2.874422073364258,-0.029683858156204224,-0.00011348725092830136,2.489566557582866e-07,-0.0013624429150256522,-0.010409413488711352
1253,30165020304,-22.965166091918945,61.23368835449219,0.0012313842307776213,0.999986233194649,-3.343685397716373e-06,-0.0006663714345186662,-0.005204743904198589,3.2937886714935303,-0.03431366756558418,7.24792471373803e-07,-0.0017797767650336027,-0.17077700793743134,-0.0007018432370387018,3.7609338760375977,-0.03940798342227936,-5.7220458984375e-06,2.493068132008924e-07,-0.0013327597220300898,-0.010409537284090149
1254,30175020304,-22.931962966918945,61.23334503173828,0.0012415695236995816,0.999986242904182,-3.2639061244875907e-06,-0.0006511725135126857,-0.005204802213593052,3.32149076461792,-0.03460170328617096,1.077651972991589e-06,-0.001818165648728609,-0.1738760620355606,-0.0006877960986457765,2.770209312438965,-0.028803572058677673,3.528594970703125e-05,2.5072604692084814e-07,-0.0013023614546773816,-0.01040965379738784
1255,30185020304,-22.898395538330078,61.23299026489258,0.0012511825188994408,0.9999862518788605,-3.189003151718627e-06,-0.0006366887809140614,-0.005204869882627794,3.3578593730926514,-0.03498248755931854,6.29425039733178e-06,-0.001714783487841487,-0.16520623862743378,-0.0007479136693291366,3.6368608474731445,-0.0380784273147583,0.0005216598510742188,2.4984610550585145e-07,-0.00127339359611329,-0.010409789036036945
1256,30195020304,-22.864559173583984,61.23263931274414,0.001261215191334486,0.9999862607674906,-3.111200510750858e-06,-0.0006221454404373375,-0.005204920904628186,3.3847246170043945,-0.03525849059224129,4.94956975671812e-06,-0.001766141620464623,-0.16730272769927979,-0.0005959710688330233,2.6865243911743164,-0.027600303292274475,-0.00013446806406136602,2.541202835425228e-07,-0.0012443064934710931,-0.010409890985172426
1257,30205020303,-22.83036994934082,61.23228454589844,0.0012703322572633624,0.9999862689491134,-3.037981411139713e-06,-0.0006083769777778143,-0.005204976604645898,3.4200387001037598,-0.03562746196985245,4.816055025003152e-06,-0.0016619734233245254,-0.15789896249771118,-0.0006313170888461173,3.5314083099365234,-0.03689713776111603,-1.3351473171496764e-05,2.5729666982001497e-07,-0.0012167691737327811,-0.010410002296983613
1258,30215020303,-22.79591941833496,61.2319221496582,0.0012797164963558316,0.9999862770312496,-2.9653445448123626e-06,-0.0005944296434643968,-0.005205035426046733,3.4462361335754395,-0.03590098395943642,4.291534423828125e-06,-0.0016591327730566263,-0.15928949415683746,-0.0006712679751217365,2.6197433471679688,-0.02735219895839691,-5.245205829851329e-05,2.5744718402604374e-07,-0.0011888741217601524,-0.010410119850578605
1259,30225020303,-22.761125564575195,61.2315673828125,0.0012884902535006404,0.9999862844270504,-2.890424905308083e-06,-0.0005814360912444199,-0.005205082275967379,3.480656147003174,-0.03625692427158356,3.519058054735069e-06,-0.001639103633351624,-0.14939448237419128,-0.0005412963218986988,3.4420013427734375,-0.03559403121471405,-7.724763418082148e-05,2.720750473035181e-07,-0.0011628865849257254,-0.010410213477335678
1260,30235020303,-22.726070404052734,61.231201171875,0.0012973403790965676,0.9999862916080532,-2.8227703131321813e-06,-0.0005683232554396479,-0.005205150975989036,3.5063271522521973,-0.036529578268527985,2.632141104186303e-06,-0.0015584388747811317,-0.15031355619430542,-0.000777621113229543,2.5671005249023438,-0.02726539969444275,-8.869169687386602e-05,2.709536355128507e-07,-0.001136660559935087,-0.010410350796579385
1261,30245020302,-22.69068145751953,61.23082733154297,0.0013056182069703937,0.9999862981805339,-2.7602639506294894e-06,-0.0005560448523865786,-0.0052052144716108395,3.539982557296753,-0.03687955066561699,2.0313261757110013e-06,-0.0014433568576350808,-0.14014938473701477,-0.0007244786829687655,3.3655405044555664,-0.03499723970890045,-6.008149284753017e-05,2.682133308919734e-07,-0.0011121034318892769,-0.010410477712850084
1262,30255020302,-22.655038833618164,61.2304573059082,0.0013138961512595415,0.9999863046834732,-2.698423293270752e-06,-0.000543766445782211,-0.005205262362536738,3.565247058868408,-0.03713860735297203,5.722045557376987e-07,-0.0014429016737267375,-0.14084790647029877,-0.0005573777598328888,2.5264501571655273,-0.02590566873550415,-0.00014591217041015625,2.6412150965754403e-07,-0.0010875463038434667,-0.010410573420201758
1263,30265020302,-22.61906623840332,61.23008346557617,0.0013215637300163507,0.9999863105411205,-2.637387697755192e-06,-0.0005323821174032525,-0.005205313888977625,3.5982470512390137,-0.03748326376080513,1.9359588350198464e-06,-0.0013807768700644374,-0.13064086437225342,-0.0005771102150902152,3.299999237060547,-0.034465640783309937,0.00013637542724609375,2.6772902500440355e-07,-0.00106477731682059,-0.010410676409634539
1264,30275020302,-22.582843780517578,61.229705810546875,0.0013292693765833974,0.999986316292078,-2.577422389294218e-06,-0.0005209381930553685,-0.005205366976099168,3.6232099533081055,-0.03774368390440941,1.1062621751989354e-06,-0.0013704507146030664,-0.13116827607154846,-0.0006104126223362982,2.4962902069091797,-0.026042014360427856,-8.296966552734375e-05,2.6857483801368816e-07,-0.001041889150738189,-0.010410782519959222
1265,30285020301,-22.546295166015625,61.22932434082031,0.0013363647740334272,0.9999863214967701,-2.524342821811052e-06,-0.0005103882827933852,-0.005205412259074395,3.655648946762085,-0.03807997703552246,4.95910626341356e-07,-0.0012389151379466057,-0.12099508941173553,-0.0005145471077412367,3.243899345397949,-0.03362931311130524,-6.103515625e-05,2.649464011604433e-07,-0.0010207890606601404,-0.010410873025824392
1266,30295020301,-22.509498596191406,61.228939056396484,0.0013434982392936945,0.999986326636183,-2.46604905696984e-06,-0.0004997788417967073,-0.0052054544182961624,3.6804041862487793,-0.038337141275405884,2.0980834847250662e-07,-0.0013001536717638373,-0.12148097902536392,-0.0004974145558662713,2.4755239486694336,-0.025716423988342285,-2.8610227673198096e-05,2.7112142027953747e-07,-0.0009995698565411486,-0.010410957289905758
1267,30305020301,-22.472381591796875,61.228553771972656,0.0013500595232471824,0.9999863312496681,-2.4115531504135507e-06,-0.0004900634309815894,-0.005205491892903494,3.712369918823242,-0.0386689193546772,7.534026735811494e-07,-0.001206085318699479,-0.11150550097227097,-0.0004337835416663438,3.196573257446289,-0.03317780792713165,5.4359428759198636e-05,2.79002192989798e-07,-0.0009801387284265092,-0.010411032191311417
1268,30315020301,-22.435022354125977,61.2281608581543,0.0013566208072006702,0.9999863357784096,-2.3648206447476134e-06,-0.0004802883893775665,-0.0052055330121219415,3.737013578414917,-0.038926105946302414,1.2493132999225054e-06,-0.0011183579917997122,-0.11196557432413101,-0.000467052188469097,2.4643659591674805,-0.025718659162521362,4.9591064453125e-05,2.7073759476785475e-07,-0.0009605884212523455,-0.010411114374798181
1269,30325020301,-22.397342681884766,61.2277717590332,0.001362609793432057,0.999986339870088,-2.3178056171409963e-06,-0.0004713478088827307,-0.0052055642437400075,3.7685818672180176,-0.03925252705812454,1.115798909268051e-06,-0.001069417456164956,-0.1021769642829895,-0.00035682079032994807,3.1568288803100586,-0.03264211118221283,-1.3351438610698096e-05,2.7171481007596935e-07,-0.0009427070110230097,-0.010411176792636229
1270,30335020300,-22.359420776367188,61.22737503051758,0.0013686370803043246,0.9999863438714726,-2.2717164241566427e-06,-0.00046234763320085004,-0.005205602757654358,3.7930748462677,-0.039509329944849014,1.3351440202313825e-06,-0.001062687486410141,-0.10288723558187485,-0.00044592510676011443,2.4492979049682617,-0.025680288672447205,2.1934511096333154e-05,2.702255416927571e-07,-0.0009247064217341496,-0.01041125377463649
1271,30345020300,-22.321184158325195,61.22697448730469,0.0013741302536800504,0.9999863474186222,-2.229679721973816e-06,-0.00045424151891824293,-0.005205635026931406,3.824172019958496,-0.03983214125037193,2.8610227786884934e-07,-0.0009713525651022792,-0.0934559777379036,-0.0003806045278906822,3.10971736907959,-0.03228113055229187,-0.0001049041748046875,2.699326723507163e-07,-0.0009084939734682231,-0.01041131827306914
1272,30355020300,-22.28270721435547,61.2265739440918,0.0013796614948660135,0.9999863509906614,-2.1858611524394926e-06,-0.00044595657786819927,-0.005205665215358573,3.8483541011810303,-0.040082406252622604,1.592636067471176e-06,-0.0009932646062225103,-0.09462485462427139,-0.00032950047170743346,2.418208122253418,-0.02502650022506714,0.00013065338134765625,2.7133876266605356e-07,-0.0008919238579865612,-0.010411378610312588
1273,30365020300,-22.243925094604492,61.22616958618164,0.0013846969231963158,0.9999863541925351,-2.1454054876083987e-06,-0.00043844648864766313,-0.005205688119293379,3.878929853439331,-0.04039991274476051,4.1007993445418833e-07,-0.0009087783400900662,-0.08577568829059601,-0.0002731832501012832,3.057575225830078,-0.031750649213790894,-0.000118255615234375,2.740790355395767e-07,-0.0008769034603902029,-0.010411424383393823
1274,30375020299,-22.20490264892578,61.225765228271484,0.0013898086035624146,0.9999863573217388,-2.108221925921639e-06,-0.00043093641487875324,-0.005205714145214127,3.902926445007324,-0.04064971208572388,1.0490417707842425e-06,-0.0008848243742249906,-0.08707475662231445,-0.0002861099783331156,2.3996591567993164,-0.024979934096336365,6.389618647517636e-05,2.702773533747311e-07,-0.0008618831278124259,-0.010411476398258863
1275,30385020299,-22.165578842163086,61.2253532409668,0.0013944243546575308,0.9999863601582527,-2.0664519974244095e-06,-0.00042402239831826224,-0.005205737045309723,3.933037281036377,-0.0409633070230484,1.0681152389224735e-06,-0.0008855126798152924,-0.07867883145809174,-0.0002721597847994417,3.0110836029052734,-0.03135949373245239,1.9073468138230965e-06,2.8185069259362104e-07,-0.0008480548459042172,-0.0104115221713401
1276,30395020299,-22.126014709472656,61.224945068359375,0.0013991164742037654,0.99998636297993,-2.028167316568183e-06,-0.00041704877326189993,-0.005205758386533377,3.9569053649902344,-0.04121086001396179,8.48770127959142e-07,-0.0008571466314606369,-0.08013319224119186,-0.00024259320343844593,2.386808395385742,-0.02475529909133911,-2.1934511096333154e-05,2.8583108061498124e-07,-0.0008341073849364841,-0.010411564823529432
