frame,timestamp,acc x (m/s^2),acc y (m/s^2),acc z (m/s^2),gyro x (rad/s),gyro y (rad/s),gyro z (rad/s),x (Ground truth),y (Ground truth),z (Ground truth),yaw (Ground Truth),pitch (Ground Truth),roll (Ground Truth)
1013,27.765020358318,0,0,9.8100004196167,0,0,0,-23.8005466461182,61.2423858642578,0.001868057181127,-0.596735239028931,0,0
1014,27.7750203580945,0,0,9.8100004196167,0,0,0,-23.8005466461182,61.2423858642578,0.001868057181127,-0.596735239028931,0,0
1015,27.785020357871,0,0,9.8100004196167,0,0,0,-23.8005466461182,61.2423858642578,0.001868057181127,-0.596735239028931,0,0
1016,27.7950203576474,0,0,9.8100004196167,0,0,0,-23.8005466461182,61.2423858642578,0.001868057181127,-0.596735239028931,0,0
1017,27.8050203574239,0,0,9.8100004196167,0,0,0,-23.8005466461182,61.2423858642578,0.001868057181127,-0.596735239028931,0,0
1018,27.8150203572004,0,0,9.8100004196167,0,0,0,-23.8005466461182,61.2423858642578,0.001868057181127,-0.596735239028931,0,0
1019,27.8250203569769,0,0,9.8100004196167,0,0,0,-23.8005466461182,61.2423858642578,0.001868057181127,-0.596735239028931,0,0
1020,27.8350203567534,0,0,9.8100004196167,0,0,0,-23.8005466461182,61.2423858642578,0.001868057181127,-0.596735239028931,0,0
1021,27.8450203565299,0,0,9.8100004196167,0,0,0,-23.8005466461182,61.2423858642578,0.001868057181127,-0.596735239028931,0,0
1022,27.8550203563063,0,0,9.8100004196167,0,0,0,-23.8005466461182,61.2423858642578,0.001868057181127,-0.596735239028931,0,0
1023,27.8650203560828,0,0,9.8100004196167,0,0,0,-23.8005466461182,61.2423858642578,0.001868057181127,-0.596735239028931,0,0
1024,27.8750203558593,0,0,9.8100004196167,0,0,0,-23.8005466461182,61.2423858642578,0.001868057181127,-0.596735239028931,0,0
1025,27.8850203556358,0,0,9.8100004196167,0,0,0,-23.8005466461182,61.2423858642578,0.001868057181127,-0.596735239028931,0,0
1026,27.8950203554123,0,0,9.8100004196167,0,0,0,-23.8005466461182,61.2423858642578,0.001868057181127,-0.596735239028931,0,0
1027,27.9050203551888,0,0,9.8100004196167,0,0,0,-23.8005466461182,61.2423858642578,0.001868057181127,-0.596735239028931,0,0
1028,27.9150203549652,0,0,9.8100004196167,0,0,0,-23.8005466461182,61.2423858642578,0.001868057181127,-0.596735239028931,0,0
1029,27.9250203547417,0,0,9.8100004196167,0,0,0,-23.8005466461182,61.2423858642578,0.001868057181127,-0.596735239028931,0,0
1030,27.9350203545182,0,0,9.8100004196167,0,0,0,-23.8005466461182,61.2423858642578,0.001868057181127,-0.596735239028931,0,0
1031,27.9450203542947,0,0,9.8100004196167,0,0,0,-23.8005466461182,61.2423858642578,0.001868057181127,-0.596735239028931,0,0
1032,27.9550203540712,0,0,9.8100004196167,0,0,0,-23.8005466461182,61.2423858642578,0.001868057181127,-0.596735239028931,0,0
1033,27.9650203538476,0,0,9.8100004196167,0,0,0,-23.8005466461182,61.2423858642578,0.001868057181127,-0.596735239028931,0,0
1034,27.9750203536241,0,0,9.8100004196167,0,0,0,-23.8005466461182,61.2423858642578,0.001868057181127,-0.596735239028931,0,0
1035,27.9850203534006,0,0,9.8100004196167,0,0,0,-23.8005466461182,61.2423858642578,0.001868057181127,-0.596735239028931,0,0
1036,27.9950203531771,0,0,9.8100004196167,0,0,0,-23.8005466461182,61.2423858642578,0.001868057181127,-0.596735239028931,0,0
1037,28.0050203529536,0,0,9.8100004196167,0,0,0,-23.8005466461182,61.2423858642578,0.001868057181127,-0.596735239028931,0,0
1038,28.0150203527301,0,0,9.8100004196167,0,0,0,-23.8005466461182,61.2423858642578,0.001868057181127,-0.596735239028931,0,0
1039,28.0250203525065,0,0,9.8100004196167,0,0,0,-23.8005466461182,61.2423858642578,0.001868057181127,-0.596735239028931,0,0
1040,28.035020352283,0,0,9.18782424926758,8.29694556614413E-07,-3.47604867556583E-07,9.90720838700554E-11,-23.8005466461182,61.2423858642578,0.001805839478038,-0.596735239028931,0,0
1041,28.0450203520595,0,0,9.90536689758301,8.51490426612145E-07,-3.52850406670768E-07,-8.77187211756336E-13,-23.8005466461182,61.2423858642578,0.001753158518113,-0.596735239028931,0,0
1042,28.055020351836,0,0,9.89392375946045,1.79934886546107E-07,3.77395981132622E-09,7.4402095595616E-11,-23.8005466461182,61.2423858642578,0.001708869938739,-0.596735239028931,0,0
1043,28.0650203516125,0,0,9.88286304473877,8.53720337090635E-07,3.54077201336622E-07,3.64518276674275E-11,-23.8005466461182,61.2423858642578,0.001671867328696,-0.596735239028931,0,0
1044,28.075020351389,0,0,9.87294101715088,-3.79171751774265E-08,1.04604014339316E-08,-2.07856717948651E-11,-23.8005466461182,61.2423858642578,0.001641159062274,-0.596735239028931,0,0
1045,28.0850203511654,0,0,9.86531448364258,8.4029557001486E-07,-3.38189948934087E-07,1.03311803556494E-12,-23.8005466461182,61.2423858642578,0.001615982037038,-0.596735239028931,0,0
1046,28.0950203509419,0,0,9.85768508911133,-4.93101381948691E-08,1.65640123839239E-08,-3.35731442646647E-13,-23.8005466461182,61.2423858642578,0.001595573383383,-0.596735239028931,0,0
1047,28.1050203507184,0,0,9.85119819641113,-7.60861311732697E-08,2.60745007807373E-08,4.53725945703809E-12,-23.8005466461182,61.2423858642578,0.001579284667969,-0.596735239028931,0,0
1048,28.1150203504949,0,0,9.84585952758789,-1.00812762582336E-07,3.27251541420992E-08,5.81092465812283E-12,-23.8005466461182,61.2423858642578,0.001566581660882,-0.596735239028931,0,0
1049,28.1250203502714,0,0,9.84051704406738,-1.25345763990481E-07,4.17318268830513E-08,6.07664266127905E-12,-23.8005466461182,61.2423858642578,0.001556930481456,-0.596735239028931,0,0
1050,28.1350203500479,0,0,9.83594036102295,7.65390169021885E-08,4.83376005888658E-08,7.33581251299853E-12,-23.8005466461182,61.2423858642578,0.001549873268232,-0.596735239028931,0,0
1051,28.1450203498243,0,0,9.83212661743164,-1.76405080765107E-07,5.73932510405939E-08,-9.60207607869634E-12,-23.8005466461182,61.2423858642578,0.001545028644614,-0.596735239028931,0,0
1052,28.1550203496008,0,0,9.82869148254395,-2.13182872244033E-07,6.12372232922098E-08,4.19541901219844E-11,-23.8005466461182,61.2423858642578,0.001542053185403,-0.596735239028931,0,0
1053,28.1650203493773,0,0,9.82602214813232,-2.26862766794511E-07,7.06973679598377E-08,5.52710099910314E-11,-23.8005466461182,61.2423858642578,0.001540679950267,-0.596735239028931,0,0
1054,28.1750203491538,0,0,9.82373332977295,-2.79911738232386E-08,7.40068983873243E-08,3.00469024661076E-12,-23.8005466461182,61.2423858642578,0.001540679950267,-0.596735239028931,0,0
1055,28.1850203489303,0,0,9.8203010559082,6.26166524853034E-07,-2.69862255208864E-07,-4.22714988013162E-11,-23.8005466461182,61.2423858642578,0.001541709876619,-0.596735239028931,0,0
1056,28.1950203487067,0,0,9.81953620910645,-2.9025326853116E-07,8.68279528276617E-08,1.11553405401921E-11,-23.8005466461182,61.2423858642578,0.001543693477288,-0.596735239028931,0,0
1057,28.2050203484832,0,0,9.81724739074707,5.75246872358548E-07,-2.56556432987054E-07,-3.43215941778219E-11,-23.8005466461182,61.2423858642578,0.001546401996166,-0.596735239028931,0,0
1058,28.2150203482597,0,0,9.8161039352417,-1.1710329061998E-07,9.72650937569597E-08,2.41979561388383E-11,-23.8005466461182,61.2423858642578,0.00154972076416,-0.596735239028931,0,0
1059,28.2250203480362,0,0,9.81457901000977,-1.42190657470564E-07,1.05357955249019E-07,-3.05763574182105E-12,-23.8005466461182,61.2423858642578,0.0015534972772,-0.596735239028931,0,0
1060,28.2350203478127,0,0,9.81343269348145,-3.89839414083326E-07,1.14404670625845E-07,-1.30580130042191E-11,-23.8005466461182,61.2423858642578,0.001557617099024,-0.596735239028931,0,0
1061,28.2450203475892,0,0,9.81267166137695,-4.2291063095945E-07,1.16355252544054E-07,3.99219823865593E-11,-23.8005466461182,61.2423858642578,0.001562004094012,-0.596735239028931,0,0
1062,28.2550203473656,0,0,9.8119068145752,-4.27999907515186E-07,1.23914503546985E-07,-1.43038358935144E-11,-23.8005466461182,61.2423858642578,0.001566581660882,-0.596735239028931,0,0
1063,28.2650203471421,0,0,9.81114387512207,4.22863109861282E-07,-2.25600288672467E-07,1.50616741301235E-11,-23.8005466461182,61.2423858642578,0.001571273780428,-0.596735239028931,0,0
1064,28.2750203469186,0,0,9.81038284301758,-4.8545729214311E-07,1.23061937529201E-07,4.7032849836981E-11,-23.8005466461182,61.2423858642578,0.001576003967784,-0.596735239028931,0,0
1065,28.2850203466951,0,0,9.81038284301758,-4.95839742598037E-07,1.25000653383722E-07,2.68829680738492E-11,-23.8005466461182,61.2423858642578,0.001580772339366,-0.596735239028931,0,0
1066,28.2950203464716,0,0,9.80961799621582,-5.13717907324462E-07,1.26926906318658E-07,3.11962400356691E-11,-23.8005466461182,61.2423858642578,0.001585502643138,-0.596735239028931,0,0
1067,28.3050203462481,0,0,9.80961799621582,-5.3025723900646E-07,1.23662616147158E-07,2.61217159014393E-11,-23.8005466461182,61.2423858642578,0.001590194646269,-0.596735239028931,0,0
1068,28.3150203460245,0,0,9.80885696411133,1.24530299672188E-06,-5.80692983476183E-07,-3.06884240242056E-11,-23.8005466461182,61.2423858642578,0.001594772329554,-0.596735239028931,0,0
1069,28.325020345801,0,0,9.80885696411133,-5.36374443527166E-07,1.19390264785579E-07,1.33077993069719E-11,-23.8005466461182,61.2423858642578,0.001599235460162,-0.596735239028931,0,0
1070,28.3350203455775,0,0,9.80885410308838,-5.51036578144704E-07,1.27493834156667E-07,-1.24627808073541E-11,-23.8005466461182,61.2423858642578,0.001603584270924,-0.596735239028931,0,0
1071,28.345020345354,0,0,9.80885791778564,3.15021992491893E-07,-2.3100338353288E-07,1.67601488243463E-11,-23.8005466461182,61.2423858642578,0.00160781852901,-0.596735239028931,0,0
1072,28.3550203451305,0,0,9.80809211730957,-5.583158895206E-07,1.19936544251686E-07,4.03214441002664E-11,-23.8005466461182,61.2423858642578,0.001611862098798,-0.596735239028931,0,0
1073,28.3650203449069,0,0,9.8088550567627,9.52953087107744E-07,1.29208260091218E-07,-1.55633506082609E-10,-23.8005466461182,61.2423858642578,0.001615791232325,-0.596735239028931,0,0
1074,28.3750203446834,0,0,9.80809497833252,3.01285581372213E-07,-2.22032127794591E-07,6.42704778286429E-11,-23.8005466461182,61.2423858642578,0.001619529677555,-0.596735239028931,0,0
1075,28.3850203444599,0,0,9.8084716796875,2.93853958055479E-07,-2.23460816073384E-07,-1.5557360955043E-11,-23.8005466461182,61.2423858642578,0.001623115502298,-0.596735239028931,0,0
1076,28.3950203442364,0,0,9.8084774017334,2.98753690231024E-07,4.74484949108955E-07,6.99104593659961E-11,-23.8005466461182,61.2423858642578,0.001626548706554,-0.596735239028931,0,0
1077,28.4050203440129,0,0,9.8084716796875,-5.97207417740719E-07,1.30913335283367E-07,2.51557663588642E-11,-23.8005466461182,61.2423858642578,0.001629829406738,-0.596735239028931,0,0
1078,28.4150203437894,0,0,9.80809497833252,-6.15956651017768E-07,1.34217714276019E-07,-4.21306878273242E-11,-23.8005466461182,61.2423858642578,0.00163291930221,-0.596735239028931,0,0
1079,28.4250203435658,0,0,9.80847454071045,1.14151714569744E-06,-5.70124768728419E-07,-2.07357908621475E-10,-23.8005466461182,61.2423858642578,0.001635856577195,-0.596735239028931,0,0
1080,28.4350203433423,0,0,9.80847358703613,-6.12502901731205E-07,1.27571155417172E-07,2.72669997691821E-10,-23.8005466461182,61.2423858642578,0.001638641348109,-0.596735239028931,0,0
1081,28.4450203431188,0,0,9.78215408325195,0,0,0,-23.8005466461182,61.2423858642578,0.001638641348109,-0.596735239028931,0,0
1082,28.4550203428953,0,0,9.8100004196167,-8.76121021065046E-07,3.46277204243961E-07,9.68289615155271E-11,-23.8005466461182,61.2423858642578,0.001638641348109,-0.596735239028931,0,0
1083,28.4650203426718,0,0,9.82487869262695,1.57143382750746E-08,-1.64985785033878E-08,-1.39910333318838E-10,-23.8005466461182,61.2423858642578,0.001640129019506,-0.596735239028931,0,0
1084,28.4750203424483,0,0,9.80542182922363,3.65825947312715E-08,-3.11689767329426E-08,2.70992672746218E-11,-23.8005466461182,61.2423858642578,0.001641159062274,-0.596735239028931,0,0
1085,28.4850203422247,0,0,9.8111457824707,-8.43300540509517E-07,3.14174343429841E-07,1.06889330719895E-10,-23.8005466461182,61.2423858642578,0.001642303424887,-0.596735239028931,0,0
1086,28.4950203420012,0,0,9.81114387512207,-8.39941151298262E-07,3.06652310655409E-07,-3.94657362345896E-11,-23.8005466461182,61.2423858642578,0.001643562223762,-0.596735239028931,0,0
1087,28.5050203417777,0,0,9.81076431274414,6.36438812762208E-08,-5.89983990550991E-08,-1.11178899420139E-10,-23.8005466461182,61.2423858642578,0.001644897391088,-0.596735239028931,0,0
1088,28.5150203415542,0,0,9.81038093566895,9.89639488579996E-07,-4.28489329351578E-07,-6.32028457348E-11,-23.8005466461182,61.2423858642578,0.00164627074264,-0.596735239028931,0,0
1089,28.5250203413307,0,0,9.81038093566895,-7.33237072836346E-07,2.67272838527788E-07,2.45358983130828E-10,-23.8005466461182,61.2423858642578,0.001647682162002,-0.596735239028931,0,0
1090,28.5350203411072,0,0,9.81000137329102,1.36718597332219E-07,-8.60112479017516E-08,-1.62752700205715E-10,-23.8005466461182,61.2423858642578,0.001649093581364,-0.596735239028931,0,0
1091,28.5450203408836,0,0,9.8100004196167,1.68978715464618E-06,-9.52439975776542E-08,-8.49698089666617E-11,-23.8005466461182,61.2423858642578,0.001650505000725,-0.596735239028931,0,0
1092,28.5550203406601,0,0,9.80999946594238,1.81268802634804E-07,-1.0307684306099E-07,1.8197418572008E-10,-23.8005466461182,61.2423858642578,0.001651916420087,-0.596735239028931,0,0
1093,28.5650203404366,0,0,9.80961990356445,-7.01608769304585E-07,2.41320464056116E-07,4.62431898329285E-11,-23.8005466461182,61.2423858642578,0.001653289771639,-0.596735239028931,0,0
1094,28.5750203402131,0,0,9.8100004196167,1.82146109750647E-07,-1.16729630406098E-07,-1.54054824452743E-10,-23.8005466461182,61.2423858642578,0.001654663006775,-0.596735239028931,0,0
1095,28.5850203399896,0,0,9.80961990356445,2.06053286433416E-07,-1.3187798231229E-07,2.35166330853076E-11,-23.8005466461182,61.2423858642578,0.001655998174101,-0.596735239028931,0,0
1096,28.595020339766,0,0,9.80923652648926,2.14856669344954E-07,-1.38492126211531E-07,8.13799375110058E-12,-23.8005466461182,61.2423858642578,0.001657257089391,-0.596735239028931,0,0
1097,28.6050203395425,0,0,9.8100004196167,2.20947327989052E-07,-1.47925504734303E-07,8.8845684281802E-13,-23.8005466461182,61.2423858642578,0.001658515888266,-0.596735239028931,0,0
1098,28.615020339319,0,0,9.80923843383789,-6.57337807297154E-07,1.96943076957723E-07,9.75147393389442E-11,-23.8005466461182,61.2423858642578,0.001659698435105,-0.596735239028931,0,0
1099,28.6250203390955,0,0,9.80961799621582,-6.67665005948948E-07,1.95574656913777E-07,-3.96439270300419E-11,-23.8005466461182,61.2423858642578,0.001660842914134,-0.596735239028931,0,0
1100,28.635020338872,0,0,9.80961990356445,1.96927899764887E-07,-1.55857620143252E-07,-1.07918216030178E-10,-23.8005466461182,61.2423858642578,0.001661949092522,-0.596735239028931,0,0
1101,28.6450203386485,0,0,9.80961799621582,2.0881397233552E-07,-1.63912829975743E-07,3.5826230870839E-11,-23.8005466461182,61.2423858642578,0.0016630172031,-0.596735239028931,0,0
1102,28.6550203384249,0,0,9.79931926727295,-6.74316197546432E-07,1.80496741108982E-07,1.07946311611595E-10,-23.8005466461182,61.2423858642578,0.0016630172031,-0.596735239028931,0,0
1103,28.6650203382014,0,0,9.82945442199707,1.93536550341378E-07,-1.69979230690842E-07,-1.35200073358988E-10,-23.8005466461182,61.2423858642578,0.001664962735958,-0.596735239028931,0,0
1104,28.6750203379779,0,0,9.79054641723633,1.73880584952713E-06,-1.72129091424722E-07,-7.55397550067372E-11,-23.8005466461182,61.2423858642578,0.001664962735958,-0.596735239028931,0,0
1105,28.6850203377544,0,0,9.82792854309082,-6.8566708932849E-07,1.83361706262986E-07,2.84590462307222E-10,-23.8005466461182,61.2423858642578,0.00166675564833,-0.596735239028931,0,0
1106,28.6950203375309,0,0,9.79207229614258,1.87871037837795E-07,-1.72789214047953E-07,-1.90449628290068E-10,-23.8005466461182,61.2423858642578,0.00166675564833,-0.596735239028931,0,0
1107,28.7050203373074,0,0,9.82564163208008,1.7552797260123E-07,-1.69488970414022E-07,1.51078316523723E-11,-23.8005466461182,61.2423858642578,0.001668319688179,-0.596735239028931,0,0
1108,28.7150203370838,0,0,9.79435920715332,8.32313503451587E-07,1.79869687144674E-07,-1.38175755559633E-12,-23.8005466461182,61.2423858642578,0.001668319688179,-0.596735239028931,0,0
1109,28.7250203368603,0,0,9.82411575317383,-6.9321566797953E-07,1.7445218247758E-07,1.36148953222559E-10,-23.8005466461182,61.2423858642578,0.00166973110754,-0.596735239028931,0,0
1110,28.7350203366368,0,0,9.79588508605957,1.54252575157443E-07,-1.69887968581861E-07,-1.58623059132168E-10,-23.8005466461182,61.2423858642578,0.00166973110754,-0.596735239028931,0,0
1111,28.7450203364133,0,0,9.82258796691895,1.52672555486788E-07,-1.72733606973452E-07,2.12976858371405E-11,-23.8005466461182,61.2423858642578,0.001670989906415,-0.596735239028931,0,0
1112,28.7550203361898,0,0,9.79741287231445,1.49673624605384E-07,-1.76494282300155E-07,6.87680728334028E-12,-23.8005466461182,61.2423858642578,0.001670989906415,-0.596735239028931,0,0
1113,28.7650203359663,0,0,9.8210620880127,-7.42189229185897E-07,1.75470304952796E-07,9.97567237148722E-11,-23.8005466461182,61.2423858642578,0.001672096201219,-0.596735239028931,0,0
1114,28.7750203357427,0,0,9.7989387512207,-7.63031493988819E-07,1.7930702256308E-07,-3.89310250703545E-11,-23.8005466461182,61.2423858642578,0.001672096201219,-0.596735239028931,0,0
1115,28.7850203355192,0,0,9.8100004196167,1.28436369095652E-07,-1.68418821999694E-07,-1.09976458495531E-10,-23.8005466461182,61.2423858642578,0.001672096201219,-0.596735239028931,0,0
1116,28.7950203352957,0,0,9.82449722290039,1.37868767069449E-07,-1.62810124493262E-07,3.86034537669389E-11,-23.8005466461182,61.2423858642578,0.001673545804806,-0.596735239028931,0,0
1117,28.8050203350722,0,0,9.79550361633301,1.17265699373093E-07,-1.58052074539228E-07,1.29936339465786E-11,-23.8005466461182,61.2423858642578,0.001673545804806,-0.596735239028931,0,0
1118,28.8150203348487,0,0,9.8100004196167,-7.90520687132812E-07,1.97717284322607E-07,1.01174714439711E-10,-23.8005466461182,61.2423858642578,0.001673545804806,-0.596735239028931,0,0
1119,28.8250203346252,0,0,9.82182502746582,7.68322308886127E-07,2.05940935416038E-07,-1.46214401697264E-10,-23.8005466461182,61.2423858642578,0.001674728351645,-0.596735239028931,0,0
1120,28.8350203344016,0,0,9.79817581176758,1.03340859425316E-07,-1.38674920435733E-07,7.03871128049371E-11,-23.8005466461182,61.2423858642578,0.001674728351645,-0.596735239028931,0,0
1121,28.8450203341781,0,0,9.8100004196167,-8.07494643595419E-07,2.18010569597027E-07,8.47419912020087E-11,-23.8005466461182,61.2423858642578,0.001674728351645,-0.596735239028931,0,0
1122,28.8550203339546,0,0,9.8100004196167,7.14268992396683E-07,2.17840451455231E-07,-1.49895290624258E-10,-23.8005466461182,61.2423858642578,0.001674728351645,-0.596735239028931,0,0
1123,28.8650203337311,0,0,9.8100004196167,0,0,0,-23.8005466461182,61.2423858642578,0.001674728351645,-0.596735239028931,0,0
1124,28.8750203335076,0,0,9.82029914855957,6.99989843866433E-09,-1.03771000681263E-08,-1.59845997115687E-12,-23.8005466461182,61.2423858642578,0.001675758277997,-0.596735239028931,0,0
1125,28.885020333284,0,0,9.79970169067383,-1.55202684037903E-09,-1.08292592670978E-08,8.22774899426892E-13,-23.8005466461182,61.2423858642578,0.001675758277997,-0.596735239028931,0,0
1126,28.8950203330605,0,0,9.8100004196167,5.5484647987214E-09,-1.83809731879592E-08,-1.62108889679991E-12,-23.8005466461182,61.2423858642578,0.001675758277997,-0.596735239028931,0,0
1127,28.905020332837,0,0,9.8100004196167,8.86689406343066E-07,-3.72205590792873E-07,-9.7768279583299E-11,-23.8005466461182,61.2423858642578,0.001675758277997,-0.596735239028931,0,0
1128,28.9150203326135,0,0,9.8100004196167,1.10647393469776E-08,-2.92477668750735E-08,1.36952588158934E-10,-23.8005466461182,61.2423858642578,0.001675758277997,-0.596735239028931,0,0
1129,28.92502033239,0,0,9.8100004196167,-8.85248368831526E-07,3.21806680858572E-07,6.93796756157106E-11,-23.8005466461182,61.2423858642578,0.001675758277997,-0.596735239028931,0,0
1130,28.9350203321665,0,0,9.8100004196167,-6.49129550112093E-09,-3.43460868634793E-08,-1.48015960599324E-10,-23.8005466461182,61.2423858642578,0.001675758277997,-0.596735239028931,0,0
1131,28.9450203319429,0,0,9.8100004196167,-8.9632004574014E-07,3.15707467279935E-07,1.25730009736813E-10,-23.8005466461182,61.2423858642578,0.001675758277997,-0.596735239028931,0,0
1132,28.9550203317194,0,0,9.8100004196167,-1.87611863822212E-08,-4.04415025911931E-08,-1.30383953633739E-10,-23.8005466461182,61.2423858642578,0.001675758277997,-0.596735239028931,0,0
1133,28.9650203314959,0,0,9.8203010559082,8.87115447767428E-07,-3.94344567666849E-07,-6.87328180482005E-11,-23.8005466461182,61.2423858642578,0.001676788320765,-0.596735239028931,0,0
1134,28.9750203312724,0,0,9.7996997833252,2.31003713935252E-08,-4.43481980028082E-08,1.47075310263922E-10,-23.8005466461182,61.2423858642578,0.001676788320765,-0.596735239028931,0,0
1135,28.9850203310489,0,0,9.8100004196167,2.00709067144089E-08,-4.14931982106737E-08,-2.62091737202041E-11,-23.8005466461182,61.2423858642578,0.001676788320765,-0.596735239028931,0,0
1136,28.9950203308254,0,0,9.8100004196167,1.41757370286655E-08,-4.3363758805981E-08,-8.20596542105978E-12,-23.8005466461182,61.2423858642578,0.001676788320765,-0.596735239028931,0,0
1137,29.0050203306018,0,0,9.8100004196167,-8.69079315179988E-07,3.1234858965945E-07,9.64007068615658E-11,-23.8005466461182,61.2423858642578,0.001676788320765,-0.596735239028931,0,0
1138,29.0150203303783,0,0,9.8100004196167,8.08778111149877E-09,-4.28575894773076E-08,-1.38757560996794E-10,-23.8005466461182,61.2423858642578,0.001676788320765,-0.596735239028931,0,0
1139,29.0250203301548,0,0,9.8100004196167,1.57478586970683E-06,-4.50568755638869E-08,-7.69811298040324E-11,-23.8005466461182,61.2423858642578,0.001676788320765,-0.596735239028931,0,0
1140,29.0350203299313,0,0,9.8100004196167,-8.3376141901681E-07,3.05688018897854E-07,2.84055057253596E-10,-23.8005466461182,61.2423858642578,0.001676788320765,-0.596735239028931,0,0
1141,29.0450203297078,0,0,9.8100004196167,-8.50818310027535E-07,3.04795435113192E-07,-9.06616726137344E-11,-23.8005466461182,61.2423858642578,0.001676788320765,-0.596735239028931,0,0
1142,29.0550203294843,0,0,9.82068157196045,9.1528727352852E-07,-4.04277443522005E-07,-2.23112778252599E-10,-23.8005466461182,61.2423858642578,0.001677856431343,-0.596735239028931,0,0
1143,29.0650203292607,0,0,9.79931926727295,4.44299210755617E-08,-6.08817529723638E-08,1.72063266412614E-10,-23.8005466461182,61.2423858642578,0.001677856431343,-0.596735239028931,0,0
1144,29.0750203290372,0,0,9.8100004196167,4.76674024696422E-08,-6.98152220479642E-08,-2.0252841070878E-11,-23.8005466461182,61.2423858642578,0.001677856431343,-0.596735239028931,0,0
1145,29.0850203288137,0,0,9.8100004196167,4.39740510671527E-08,-7.2162585240676E-08,-6.66930920212305E-12,-23.8005466461182,61.2423858642578,0.001677856431343,-0.596735239028931,0,0
1146,29.0950203285902,0,0,9.8100004196167,-8.36651395275112E-07,2.70827854365052E-07,9.52701806333778E-11,-23.8005466461182,61.2423858642578,0.001677856431343,-0.596735239028931,0,0
1147,29.1050203283667,0,0,9.8100004196167,1.57441445480799E-06,-7.70619337231437E-08,-2.4162064016231E-10,-23.8005466461182,61.2423858642578,0.001677856431343,-0.596735239028931,0,0
1148,29.1150203281431,0,0,9.8100004196167,-8.19934371065756E-07,2.67976531631575E-07,3.01537322888734E-10,-23.8005466461182,61.2423858642578,0.001677856431343,-0.596735239028931,0,0
1149,29.1250203279196,0,0,9.8100004196167,9.21553009902709E-07,-4.37258904639748E-07,-2.786889885531E-10,-23.8005466461182,61.2423858642578,0.001677856431343,-0.596735239028931,0,0
1150,29.1350203276961,0,0,9.8100004196167,-8.22282459012058E-07,2.53346570389112E-07,2.48395970459114E-10,-23.8005466461182,61.2423858642578,0.001677856431343,-0.596735239028931,0,0
1151,29.1450203274726,0,0,9.8100004196167,9.23836239508091E-07,-4.48570233402279E-07,-2.57530136105188E-10,-23.8005466461182,61.2423858642578,0.001677856431343,-0.596735239028931,0,0
1152,29.1550203272491,0,0,9.8100004196167,-8.23932282401074E-07,2.4204626924984E-07,2.55025917050844E-10,-23.8005466461182,61.2423858642578,0.001677856431343,-0.596735239028931,0,0
1153,29.1650203270256,0,0,9.8100004196167,3.77814295404733E-08,-1.0839370645499E-07,-1.58521584747717E-10,-23.8005466461182,61.2423858642578,0.001677856431343,-0.596735239028931,0,0
1154,29.175020326802,0,0,9.8100004196167,3.29914513486074E-08,-1.11231031496573E-07,2.1448065545826E-11,-23.8005466461182,61.2423858642578,0.001677856431343,-0.596735239028931,0,0
1155,29.1850203265785,0,0,9.8100004196167,-8.49285754611628E-07,2.32705573921521E-07,1.03912628501845E-10,-23.8005466461182,61.2423858642578,0.001677856431343,-0.596735239028931,0,0
1156,29.195020326355,0,0,9.8100004196167,9.96052129664804E-09,-1.18221748834912E-07,-1.35367411724374E-10,-23.8005466461182,61.2423858642578,0.001677856431343,-0.596735239028931,0,0
1157,29.2050203261315,0,0,9.8203010559082,1.55079726482654E-06,-1.22716372175091E-07,-7.60199611593571E-11,-23.8005466461182,61.2423858642578,0.001678886357695,-0.596735239028931,0,0
1158,29.215020325908,0,0,9.7996997833252,2.52926195543068E-08,-1.27684160133867E-07,1.84335630093457E-10,-23.8005466461182,61.2423858642578,0.001678886357695,-0.596735239028931,0,0
1159,29.2250203256845,0,0,9.8100004196167,-8.59933550145797E-07,2.13892874967314E-07,4.53941884082099E-11,-23.8005466461182,61.2423858642578,0.001678886357695,-0.596735239028931,0,0
1160,29.2350203254609,0,0,9.8100004196167,3.9153902342548E-09,-1.34692783149148E-07,-1.52017454180253E-10,-23.8005466461182,61.2423858642578,0.001678886357695,-0.596735239028931,0,0
1161,29.2450203252374,0,0,9.8100004196167,6.43407190636935E-07,2.18921400119143E-07,2.08447842320325E-11,-23.8005466461182,61.2423858642578,0.001678886357695,-0.596735239028931,0,0
1162,29.2550203250139,0,0,9.8100004196167,-1.21220971038838E-08,-1.332297188128E-07,4.59578070044486E-11,-23.8005466461182,61.2423858642578,0.001678886357695,-0.596735239028931,0,0
1163,29.2650203247904,0,0,9.8100004196167,-8.93981166427693E-07,2.10672553180302E-07,7.41597686038098E-11,-23.8005466461182,61.2423858642578,0.001678886357695,-0.596735239028931,0,0
1164,29.2750203245669,0,0,9.8100004196167,-3.28945120031676E-08,-1.38377018288338E-07,-1.43071748892609E-10,-23.8005466461182,61.2423858642578,0.001678886357695,-0.596735239028931,0,0
1165,29.2850203243433,0,0,9.8100004196167,0,0,0,-23.8005466461182,61.2423858642578,0.001678886357695,-0.596735239028931,0,0
1166,29.2950203241198,0,0,9.8100004196167,2.25139507037397E-09,2.34961561318414E-09,1.02268698067357E-13,-23.8005466461182,61.2423858642578,0.001678886357695,-0.596735239028931,0,0
1167,29.3050203238963,0,0,9.8100004196167,4.51262405221087E-09,4.69941774383642E-09,2.17145772933927E-13,-23.8005466461182,61.2423858642578,0.001678886357695,-0.596735239028931,0,0
1168,29.3150203236728,0,0,9.8100004196167,6.77531586390501E-09,7.04921365723976E-09,2.45878567072672E-13,-23.8005466461182,61.2423858642578,0.001678886357695,-0.596735239028931,0,0
1169,29.3250203234493,0,0,9.8100004196167,9.03815600139524E-09,9.39901756424888E-09,2.5129776189646E-13,-23.8005466461182,61.2423858642578,0.001678886357695,-0.596735239028931,0,0
1170,29.3350203232258,0,0,9.8100004196167,1.13010472091446E-08,1.17488188067227E-08,2.52200793885923E-13,-23.8005466461182,61.2423858642578,0.001678886357695,-0.596735239028931,0,0
1171,29.3450203230022,0,0,9.8100004196167,1.35639135478982E-08,1.4098620937375E-08,2.52313496701753E-13,-23.8005466461182,61.2423858642578,0.001678886357695,-0.596735239028931,0,0
1172,29.3550203227787,0,0,9.8100004196167,1.58267763339381E-08,1.64484230680273E-08,2.5233390680765E-13,-23.8005466461182,61.2423858642578,0.001678886357695,-0.596735239028931,0,0
1173,29.3650203225552,0,0,9.8100004196167,-6.20323248767818E-07,-3.32956915372051E-07,5.33726405085866E-12,-23.8005466461182,61.2423858642578,0.001678886357695,-0.596735239028931,0,0
1174,29.3750203223317,0,0,9.8100004196167,5.48540270983722E-08,1.77371735077259E-08,-3.9117653560794E-11,-23.8005466461182,61.2423858642578,0.001678886357695,-0.596735239028931,0,0
1175,29.3850203221082,0,0,9.8100004196167,8.53747579299125E-08,2.0526520927433E-08,2.36029980282826E-11,-23.8005466461182,61.2423858642578,0.001678886357695,-0.596735239028931,0,0
1176,29.3950203218847,0,0,9.8100004196167,1.13822281377907E-07,2.32893562213121E-08,6.79644361623044E-12,-23.8005466461182,61.2423858642578,0.001678886357695,-0.596735239028931,0,0
1177,29.4050203216611,0,0,9.8100004196167,1.29397577097734E-07,3.17316164455406E-08,2.929421028669E-12,-23.8005466461182,61.2423858642578,0.001678886357695,-0.596735239028931,0,0
1178,29.4150203214376,0,0,9.8100004196167,1.4487464738977E-07,4.01743207589789E-08,1.28424864059146E-12,-23.8005466461182,61.2423858642578,0.001678886357695,-0.596735239028931,0,0
1179,29.4250203212141,0,0,9.8100004196167,-1.37666756927501E-06,4.31905462505711E-08,1.0438413328151E-10,-23.8005466461182,61.2423858642578,0.001678886357695,-0.596735239028931,0,0
1180,29.4350203209906,0,0,9.8100004196167,-1.35759239583422E-06,4.40752181418702E-08,-7.30647209401525E-11,-23.8005466461182,61.2423858642578,0.001678886357695,-0.596735239028931,0,0
1181,29.4450203207671,0,0,9.8100004196167,-4.44891242068479E-07,3.98025264303214E-07,-4.1345850354535E-11,-23.8005466461182,61.2423858642578,0.001678886357695,-0.596735239028931,0,0
1182,29.4550203205436,0,0,9.8100004196167,-4.15398091035968E-07,-3.04202075085413E-07,-3.680591248445E-11,-23.8005466461182,61.2423858642578,0.001678886357695,-0.596735239028931,0,0
1183,29.46502032032,0,0,9.8100004196167,-3.62225534900062E-07,-3.02967094967244E-07,6.16193207569893E-12,-23.8005466461182,61.2423858642578,0.001678886357695,-0.596735239028931,0,0
1184,29.4750203200965,0,0,9.8100004196167,1.20373010759067E-06,-3.03259099609932E-07,-1.0120915910905E-10,-23.8005466461182,61.2423858642578,0.001678886357695,-0.596735239028931,0,0
1185,29.485020319873,0,0,9.8100004196167,1.2417078778526E-06,-3.02389906892131E-07,7.28152121931558E-11,-23.8005466461182,61.2423858642578,0.001678886357695,-0.596735239028931,0,0
1186,29.4950203196495,0,0,9.8100004196167,3.86314070510707E-07,5.09073281307337E-08,1.17619608497321E-10,-23.8005466461182,61.2423858642578,0.001678886357695,-0.596735239028931,0,0
1187,29.505020319426,0,0,9.8100004196167,3.98086143604814E-07,5.89088209324018E-08,-3.50162537854359E-11,-23.8005466461182,61.2423858642578,0.001678886357695,-0.596735239028931,0,0
1188,29.5150203192024,0,0,9.8100004196167,4.14065397080776E-07,6.6878634186196E-08,-9.49630131474866E-12,-23.8005466461182,61.2423858642578,0.001678886357695,-0.596735239028931,0,0
1189,29.5250203189789,0,0,9.8100004196167,4.30502069548311E-07,7.484789676937E-08,-1.19751084048936E-12,-23.8005466461182,61.2423858642578,0.001678886357695,-0.596735239028931,0,0
1190,29.5350203187554,0,0,9.8100004196167,4.47004680381724E-07,8.28171948796808E-08,4.63173770171021E-13,-23.8005466461182,61.2423858642578,0.001678886357695,-0.596735239028931,0,0
1191,29.5450203185319,0,0,9.8100004196167,4.63516727222668E-07,9.07864929899915E-08,7.51563308115655E-13,-23.8005466461182,61.2423858642578,0.001678886357695,-0.596735239028931,0,0
1192,29.5550203183084,0,0,9.8100004196167,-1.81990813530319E-07,-2.54358155871159E-07,7.33784647627411E-12,-23.8005466461182,61.2423858642578,0.001678886357695,-0.596735239028931,0,0
1193,29.5650203180849,0,0,9.8100004196167,4.80471214814315E-07,9.96620670434822E-08,-3.81163399454376E-11,-23.8005466461182,61.2423858642578,0.001678886357695,-0.596735239028931,0,0
1194,29.5750203178613,0,0,9.8100004196167,-1.70929439491374E-07,-2.40255701555725E-07,3.1944783623894E-11,-23.8005466461182,61.2423858642578,0.001678886357695,-0.596735239028931,0,0
1195,29.5850203176378,0,0,9.8100004196167,4.83530584460823E-07,1.18965459705578E-07,-3.07304771907102E-11,-23.8005466461182,61.2423858642578,0.001678886357695,-0.596735239028931,0,0
1196,29.5950203174143,0,0,9.8100004196167,-1.67861273325798E-07,-2.20951832829996E-07,3.27691693224885E-11,-23.8005466461182,61.2423858642578,0.001678886357695,-0.596735239028931,0,0
1197,29.6050203171908,0,0,9.8100004196167,-1.05544324924267E-06,1.39447863034547E-07,7.38812205858253E-11,-23.8005466461182,61.2423858642578,0.001678886357695,-0.596735239028931,0,0
1198,29.6150203169673,0,0,9.8100004196167,-1.05268009065185E-06,1.51706757378633E-07,-4.6416967491858E-11,-23.8005466461182,61.2423858642578,0.001678886357695,-0.596735239028931,0,0
1199,29.6250203167438,0,0,9.8100004196167,-1.03475804280606E-06,1.58259240379266E-07,-1.25719573640382E-11,-23.8005466461182,61.2423858642578,0.001678886357695,-0.596735239028931,0,0
1200,29.6350203165202,0,0,9.8100004196167,-1.00582485629275E-06,1.59135367994168E-07,-3.21993993968039E-12,-23.8005466461182,61.2423858642578,0.001678886357695,-0.596735239028931,0,0
1201,29.6450203162967,0,0,9.8100004196167,-8.89849616214633E-08,5.1213675078543E-07,-2.25586667401689E-11,-23.8005466461182,61.2423858642578,0.001678886357695,-0.596735239028931,0,0
1202,29.6550203160732,0,0,9.8100004196167,-9.28547763123788E-07,1.66531819445481E-07,6.44968453644701E-11,-23.8005466461182,61.2423858642578,0.001678886357695,-0.596735239028931,0,0
1203,29.6650203158497,0,0,9.8100004196167,-2.3262977322247E-07,-1.90669581456859E-07,-1.15396900368658E-10,-23.8005466461182,61.2423858642578,0.001678886357695,-0.596735239028931,0,0
1204,29.6750203156262,0,0,9.8100004196167,4.17958219145476E-08,-1.90852873060976E-07,4.72085565084157E-12,-23.8005466461182,61.2423858642578,0.001678886357695,-0.596735239028931,0,0
1205,29.6850203154027,0,0,9.8100004196167,9.26518737287552E-08,-1.89553887253169E-07,1.66821695346542E-11,-23.8005466461182,61.2423858642578,0.001678886357695,-0.596735239028931,0,0
1206,29.6950203151791,0,0,9.8100004196167,1.30879797666239E-07,-1.82575931262363E-07,5.33977896621796E-12,-23.8005466461182,61.2423858642578,0.001678886357695,-0.596735239028931,0,0
1207,29.7050203149556,0,0,9.8100004196167,0,0,0,-23.8005466461182,61.2423858642578,0.001678886357695,-0.596735239028931,0,0
1208,29.7150203147321,0,0,9.8100004196167,3.77860409628283E-08,6.97778901326274E-09,-1.80129609145263E-12,-23.8005466461182,61.2423858642578,0.001678886357695,-0.596735239028931,0,0
1209,29.7250203145086,0,0,9.8100004196167,7.57374749582596E-08,1.39561242562536E-08,4.7159541896602E-15,-23.8005466461182,61.2423858642578,0.001678886357695,-0.596735239028931,0,0
1210,29.7350203142851,0,0,9.8100004196167,1.13712786742326E-07,2.09344914736675E-08,4.81089126869172E-13,-23.8005466461182,61.2423858642578,0.001678886357695,-0.596735239028931,0,0
1211,29.7450203140615,0,0,9.8100004196167,1.40188546993159E-07,3.3590694670238E-08,1.96591636199284E-12,-23.8005466461182,61.2423858642578,0.001678886357695,-0.596735239028931,0,0
1212,29.755020313838,0,0,9.8100004196167,1.66614412933086E-07,4.62473792595119E-08,1.46063760045334E-12,-23.8005466461182,61.2423858642578,0.001678886357695,-0.596735239028931,0,0
1213,29.7650203136145,0,0,9.8100004196167,1.93033159234801E-07,5.89040460852175E-08,1.31903667675848E-12,-23.8005466461182,61.2423858642578,0.001678886357695,-0.596735239028931,0,0
1214,29.775020313391,0,0,9.8100004196167,2.05272556286218E-07,6.59417409565322E-08,1.64190633745315E-12,-23.8005466461182,61.2423858642578,0.001678886357695,-0.596735239028931,0,0
1215,29.7850203131675,0,0,9.8100004196167,2.05411666343025E-07,6.73550601959505E-08,1.15395366873106E-12,-23.8005466461182,61.2423858642578,0.001678886357695,-0.596735239028931,0,0
1216,29.795020312944,0,0,9.8100004196167,2.05489101290368E-07,6.87678749500265E-08,3.85417446655684E-13,-23.8005466461182,61.2423858642578,0.001678886357695,-0.596735239028931,0,0
1217,29.8050203127204,0.239971294999123,0.002501909155399,9.82068157196045,1.07869191197096E-05,-0.000148072242155,0.0003997705644,-23.8005218505859,61.2423858642578,0.001679954468273,-0.596509337425232,9.56226431299001E-05,1.92617098946357E-05
1218,29.8150203124969,27.2229328155518,-0.076641470193863,9.56054401397705,-2.38762186199892E-06,0.00705583859235,0.000175104665686,-23.7977752685547,61.2423515319824,0.001656265230849,-0.59640896320343,-0.003961509559304,1.78902846528217E-05
1219,29.8250203122734,26.0020294189453,0.110625401139259,9.65798377990723,-2.89817876364395E-06,0.011426971293986,8.83024331415072E-05,-23.7924289703369,61.2422981262207,0.001617851201445,-0.596358478069305,-0.010511660948396,1.62233136506984E-05
1220,29.8350203120499,24.4051761627197,-0.066031895577908,9.70552539825439,-2.51933306572027E-06,0.014300382696092,5.16268555657007E-05,-23.7846431732178,61.2422142028809,0.001569785992615,-0.596328914165497,-0.018694227561355,1.47722612382495E-05
1221,29.8450203118264,21.3452224731445,0.062104355543852,9.75697422027588,-1.60337663146493E-06,0.015620023012161,3.36762132064905E-05,-23.7747230529785,61.2421112060547,0.001517448341474,-0.596309244632721,-0.027655433863402,1.3845799912815E-05
1222,29.8550203116029,19.6277332305908,-0.035796210169792,9.77829074859619,-1.03142815532919E-06,0.016126470640302,2.11493861570489E-05,-23.7628421783447,61.2419891357422,0.0014632033417,-0.596297144889832,-0.036889851093292,1.32479535750463E-05
1223,29.8650203113793,11.6283798217773,0.000937944685575,9.86456775665283,-8.56967631079897E-07,0.014244940131903,1.69370377989253E-05,-23.7497959136963,61.2418556213379,0.001415328937583,-0.596287429332733,-0.045051924884319,1.27499906739104E-05
1224,29.8750203111558,19.4101810455322,0.001908048056066,9.76780509948731,-8.73808858159464E-07,0.014964899979532,2.91163064503053E-06,-23.7348136901855,61.24169921875,0.001365051255561,-0.596285879611969,-0.0536238104105,1.22479350466165E-05
1225,29.8850203109323,15.3518390655518,-0.040344409644604,9.82322597503662,1.32815841880074E-06,0.014105759561062,1.8434709545545E-06,-23.7182960510254,61.2415237426758,0.001317749032751,-0.596284687519074,-0.061710756272078,1.30077578432974E-05
1226,29.8950203107088,12.8524131774902,0.013633449561894,9.84030628204346,3.69150711776456E-07,0.01272429805249,3.92170977647765E-06,-23.7004928588867,61.2413368225098,0.00127502437681,-0.596282541751862,-0.068998567759991,1.3216746992839E-05
1227,29.9050203104853,12.7735443115234,0.012800506316125,9.83320617675781,-1.89961184560161E-07,0.011542461812496,2.83584540738957E-06,-23.6814155578613,61.2411346435547,0.001236305222847,-0.596280872821808,-0.075610190629959,1.31059105115128E-05
1228,29.9150203102617,7.01398038864136,0.032852351665497,9.88213634490967,6.14880491411896E-07,0.009056597948074,4.17578530687024E-06,-23.6616382598877,61.2409324645996,0.001205787644722,-0.596278548240662,-0.080801136791706,1.34548690766678E-05
1229,29.9250203100382,11.8556995391846,-0.03677125275135,9.81671810150147,-3.42508400308361E-07,0.008336011320353,-7.36921765565057E-06,-23.6406764984131,61.2407112121582,0.001177711412311,-0.596282660961151,-0.085575439035893,1.32647974169231E-05
1230,29.9350203098147,6.6754298210144,0.029317282140255,9.86484622955322,4.76761499612621E-07,0.006405827123672,-4.12370245612692E-05,-23.619047164917,61.2404861450195,0.001156158396043,-0.596306502819061,-0.089250080287457,1.35741511257947E-05
1231,29.9450203095912,9.6965856552124,-0.019250221550465,9.825270652771,6.42933400740731E-07,0.005529628600925,2.04235020646593E-05,-23.5964527130127,61.2402534484863,0.001137695275247,-0.596294522285461,-0.092419281601906,1.39239164127503E-05
1232,29.9550203093677,6.17595863342285,0.064105048775673,9.84710311889648,1.04006562651193E-06,0.004064645152539,8.57779014040716E-05,-23.5732383728027,61.2400131225586,0.001123962341808,-0.596245586872101,-0.094748377799988,1.44394443850615E-05
1233,29.9650203091442,7.917809009552,-0.077775321900845,9.82680797576904,-1.44648936384328E-06,0.003171868622303,-5.34814062120859E-05,-23.5492382049561,61.2397651672363,0.001113243051805,-0.596276044845581,-0.096558377146721,1.36617518364801E-05
1234,29.9750203089206,5.99646854400635,0.062243398278952,9.83411121368408,9.84750045063265E-07,0.002147573279217,-0.000138699368108,-23.52463722229,61.2395095825195,0.001105956966057,-0.596355676651001,-0.097787812352181,1.43609158840263E-05
1235,29.9850203086971,6.71780061721802,-0.050258539617062,9.82516098022461,1.01485693448922E-06,0.001373793464154,3.62062382919248E-05,-23.4993667602539,61.2392463684082,0.001101341214962,-0.596335053443909,-0.098580114543438,1.49067200254649E-05
1236,29.9950203084736,5.35709857940674,0.015577798709273,9.82823371887207,1.61053151259694E-06,0.000545894552488,9.04927292140201E-05,-23.4735641479492,61.2389793395996,0.001099472050555,-0.596283137798309,-0.09889430552721,1.57400663738372E-05
1237,30.0050203082501,6.15703821182251,0.023903328925371,9.81769847869873,-1.39481380756479E-06,9.31228711920085E-08,-2.50940556725254E-05,-23.4471454620361,61.2387046813965,0.00109943386633,-0.596283137798309,-0.09889430552721,1.57400663738372E-05
1238,30.0150203080266,4.71747636795044,-0.031076829880476,9.82479381561279,-4.83186113342526E-07,-0.000676382682286,-5.60498410777655E-05,-23.4202575683594,61.2384262084961,0.001101684523746,-0.5963294506073,-0.098504982888699,1.47442906381912E-05
1239,30.0250203078031,5.65730285644531,-0.021293116733432,9.81293487548828,-9.73223336586671E-07,-0.001055725035258,-9.38942321226932E-06,-23.3928050994873,61.2381401062012,0.001105194096453,-0.596335053443909,-0.097903929650784,1.41959853863227E-05
1240,30.0350203075795,4.25640249252319,0.044131468981505,9.82111930847168,-2.45434563339586E-07,-0.001578223193064,2.23836264012789E-06,-23.3649291992187,61.237850189209,0.001110534649342,-0.596333622932434,-0.096995510160923,1.40532038130914E-05
1241,30.045020307356,5.21740102767944,-0.065870143473148,9.80890655517578,-9.76944988906325E-07,-0.00182555813808,-9.5806053650449E-06,-23.3365325927734,61.2375526428223,0.00111663818825,-0.596339046955109,-0.095950491726399,1.35025557028712E-05
1242,30.0550203071325,3.89560151100159,0.080383256077767,9.81730842590332,6.1597027922744E-08,-0.00222304277122,-1.20641170724412E-05,-23.3077487945557,61.2372550964355,0.001124114962295,-0.596346199512482,-0.094680078327656,1.35495574795641E-05
1243,30.065020306909,4.87654781341553,-0.029409680515528,9.80664825439453,1.4301182318377E-06,-0.002363346749917,-1.18269581435015E-05,-23.2784786224365,61.2369499206543,0.001132049481384,-0.596352815628052,-0.093320868909359,1.43800389196258E-05
1244,30.0750203066855,3.61594557762146,-0.002525669289753,9.81223011016846,-3.76368625154555E-08,-0.002662851009518,-1.14451504487079E-05,-23.2488498687744,61.236644744873,0.001140785170719,-0.596359550952911,-0.091790907084942,1.43690440381761E-05
1245,30.085020306462,4.51562261581421,0.006842320319265,9.80671691894531,-3.39525968229282E-07,-0.002716087503359,-1.31111055452493E-05,-23.2187690734863,61.2363319396973,0.001149902353063,-0.596367180347443,-0.090233623981476,1.41865002660779E-05
1246,30.0950203062384,3.39540386199951,-0.004814645741135,9.81239414215088,-3.17062813337543E-07,-0.002937437267974,-1.33101166284177E-05,-23.1883506774902,61.2360153198242,0.001159782405011,-0.596374809741974,-0.088560231029987,1.40167758218013E-05
1247,30.1050203060149,4.31546926498413,-0.035236049443483,9.80308532714844,3.22391713325487E-07,-0.00292482925579,-1.34102165247896E-05,-23.1575050354004,61.2356910705566,0.001169624272734,-0.596382319927216,-0.086879998445511,1.42132830660557E-05
1248,30.1150203057914,3.15440917015076,0.032685875892639,9.81066608428955,-9.19898070605996E-07,-0.003085284959525,-1.21683206089074E-05,-23.1263427734375,61.2353630065918,0.001180000253953,-0.596389174461365,-0.085124641656876,1.36966364152613E-05
1249,30.1250203055679,4.09446287155151,0.002472729887813,9.80176448822022,2.70096364829442E-07,-0.003021431853995,-1.01452324088314E-05,-23.0947723388672,61.2350387573242,0.001190147362649,-0.596395075321198,-0.083376117050648,1.38598443299998E-05
1250,30.1350203053444,3.03422403335571,-0.008560232818127,9.80950355529785,6.19367881427024E-07,-0.003135062754154,-1.25589776871493E-05,-23.0629005432129,61.2347068786621,0.001200675964355,-0.596402287483215,-0.081586606800556,1.42250846693059E-05
1251,30.1450203051208,3.89386868476868,0.000391893729102,9.80153179168701,-9.40226698276092E-07,-0.003032499691471,-1.2238406270626E-05,-23.0306396484375,61.2343673706055,0.001210899325088,-0.596409320831299,-0.079844906926155,1.36962426040554E-05
1252,30.1550203048973,2.91362500190735,-0.009808636270463,9.80832767486572,9.76204887592758E-07,-0.003112294944003,-1.08169033410377E-05,-22.9980907440186,61.2340316772461,0.001221351558343,-0.596415460109711,-0.078062228858471,1.42641656566411E-05
1253,30.1650203046738,3.75286293029785,0.038933407515287,9.80081272125244,1.86277056002382E-08,-0.002980783116072,-1.2250254258106E-05,-22.9651660919189,61.2336883544922,0.001231384230778,-0.596422553062439,-0.076361507177353,1.42842282002675E-05
1254,30.1750203044503,2.81345677375793,-0.050846695899963,9.80787086486816,1.25915690318834E-07,-0.00303487572819,-1.20052418424166E-05,-22.9319629669189,61.2333450317383,0.0012415695237,-0.596429228782654,-0.074619814753532,1.43655443025637E-05
1255,30.1850203042268,3.6327018737793,-0.002312627620995,9.79965972900391,-1.04594818139958E-07,-0.002883548149839,-1.30541548060137E-05,-22.8983955383301,61.2329902648926,0.001251182518899,-0.596436977386475,-0.072960078716278,1.43151273732656E-05
1256,30.1950203040033,2.7120635509491,0.028108693659306,9.81082820892334,4.14210660437675E-07,-0.002920146100223,-1.04029231806635E-05,-22.864559173584,61.2326393127441,0.001261215191334,-0.596442818641663,-0.071293510496616,1.45600197356544E-05
1257,30.2050203037797,3.53214836120605,-0.003352760570124,9.79655456542969,3.03968676007571E-07,-0.002756009344012,-1.10196488094516E-05,-22.8303699493408,61.2322845458984,0.001270332257263,-0.596449196338654,-0.069715738296509,1.47420132634579E-05
1258,30.2150203035562,2.65193724632263,-0.012513086199761,9.80952739715576,9.08305985980462E-10,-0.002780277049169,-1.17165618576109E-05,-22.795919418335,61.2319221496582,0.001279716496356,-0.596455931663513,-0.068117469549179,1.47506370922201E-05
1259,30.2250203033327,3.43079662322998,0.075602777302265,9.79991054534912,1.45184969824186E-06,-0.002607582136989,-9.44980729400413E-06,-22.7611255645752,61.2315673828125,0.001288490253501,-0.596461296081543,-0.066628493368626,1.55887519213138E-05
1260,30.2350203031092,2.6122579574585,-0.092924416065216,9.80780124664307,-1.277249452869E-07,-0.00262360740453,-1.35726231746958E-05,-22.7260704040527,61.231201171875,0.001297340379097,-0.596469163894653,-0.065125852823258,1.55244997586124E-05
1261,30.2450203028857,3.37071919441223,0.034981198608875,9.800537109375,-2.88377293600206E-07,-0.002446198137477,-1.26448821902159E-05,-22.6906814575195,61.230827331543,0.00130561820697,-0.596476435661316,-0.06371883302927,1.53674918692559E-05
1262,30.2550203026622,2.53094720840454,-0.013761067762971,9.80725383758545,-4.19994847788985E-07,-0.002458388917148,-9.72827638179297E-06,-22.6550388336182,61.2304573059082,0.00131389615126,-0.596481919288635,-0.062311813235283,1.51330477820011E-05
1263,30.2650203024386,3.3106746673584,-0.005640594288707,9.80037593841553,3.49977028690773E-07,-0.002280240645632,-1.00734623629251E-05,-22.6190662384033,61.2300834655762,0.001321563730016,-0.596487820148468,-0.061007246375084,1.53397431859048E-05
1264,30.2750203022151,2.53008341789246,0.026237335056067,9.80775165557861,7.33152560883355E-08,-0.002289443509653,-1.06544084701454E-05,-22.5828437805176,61.2297058105469,0.001329269376583,-0.596493899822235,-0.059695851057768,1.53882047015941E-05
1265,30.2850203019916,3.25024700164795,-0.006264612544328,9.80058479309082,-3.7208801018096E-07,-0.002111873356625,-8.98072630661773E-06,-22.5462951660156,61.2293243408203,0.001336364774033,-0.596499085426331,-0.05848690494895,1.51803105836734E-05
1266,30.2950203017681,2.49050331115723,-0.054174292832613,9.80789756774902,6.08691038905817E-07,-0.002120364457369,-8.68271035869839E-06,-22.5094985961914,61.2289390563965,0.001343498239294,-0.596503913402557,-0.057271134108305,1.55341131176101E-05
1267,30.3050203015446,3.22901725769043,0.073523491621018,9.80111694335938,7.80655170729006E-07,-0.001946251955815,-7.57226325731608E-06,-22.4723815917969,61.2285537719727,0.001350059523247,-0.596508204936981,-0.056157812476158,1.59856481332099E-05
1268,30.3150203013211,2.43012380599976,-0.054798562079668,9.80767059326172,-8.34559955364966E-07,-0.001954265404493,-8.15133080322994E-06,-22.435022354126,61.2281608581543,0.001356620807201,-0.596512913703918,-0.055037662386894,1.55121215357212E-05
1269,30.3250203010975,3.18906855583191,0.033109609037638,9.80127620697022,9.17996487714845E-08,-0.001783422194421,-6.22827201368636E-06,-22.3973426818848,61.2277717590332,0.001362609793432,-0.596516489982605,-0.054013133049011,1.55681118485518E-05
1270,30.335020300874,2.44935488700867,-0.01459217723459,9.80812168121338,-1.56178444399302E-07,-0.001795816933736,-7.78320645622443E-06,-22.3594207763672,61.2273750305176,0.001368637080304,-0.596520900726318,-0.052981775254011,1.54827830556314E-05
1271,30.3450203006505,3.16915106773376,-0.0070960088633,9.80178546905518,-3.54034312977092E-08,-0.001631202641875,-6.64321350996033E-06,-22.3211841583252,61.2269744873047,0.00137413025368,-0.596524596214294,-0.052052870392799,1.54660028783837E-05
1272,30.355020300427,2.38862013816833,0.024781297892332,9.80825614929199,1.35426262204419E-07,-0.001651606406085,-5.75143940295675E-06,-22.2827072143555,61.2265739440918,0.001379661494866,-0.596528053283691,-0.051103472709656,1.55465659190668E-05
1273,30.3650203002035,3.06884741783142,-0.008136763237417,9.80235290527344,2.69800779051366E-07,-0.001497152261436,-4.76859577247524E-06,-22.2439250946045,61.2261695861816,0.001384696923196,-0.596530675888062,-0.050242867320776,1.57035719894338E-05
1274,30.37502029998,2.42832350730896,0.02519796974957,9.80867290496826,-3.84506790851447E-07,-0.001519819605164,-4.99364296047133E-06,-22.2049026489258,61.2257652282715,0.001389808603562,-0.5965336561203,-0.049382265657187,1.5485751646338E-05
1275,30.3850202997564,3.00898432731628,-0.048758897930384,9.80249500274658,1.15335240025161E-06,-0.00137329113204,-4.75145134259947E-06,-22.1655788421631,61.2253532409668,0.001394424354658,-0.59653627872467,-0.048589963465929,1.61488551384537E-05
1276,30.3950202995329,2.38763666152954,0.064779706299305,9.80877494812012,3.94460812458419E-07,-0.001398668158799,-4.23478059019544E-06,-22.1260147094727,61.2249450683594,0.001399116474204,-0.596538722515106,-0.047790832817555,1.6376914572902E-05
1277,30.4050202993094,3.00872159004211,-0.048758544027805,9.80104923248291,-9.52393719444444E-09,-0.001259100739844,-6.0455618040578E-06,-22.0861549377441,61.2245292663574,0.001403160043992,-0.596542298793793,-0.047060001641512,1.63743879966205E-05
1278,30.4150202990859,2.38822293281555,-0.015215666033328,9.81303024291992,-2.08066031071041E-09,-0.001284251920879,-6.03886883254745E-06,-22.0460548400879,61.2241096496582,0.001407699543051,-0.596545577049255,-0.046329170465469,1.63759759743698E-05
1279,30.4250202988624,2.92765164375305,0.030404532328248,9.79927921295166,1.26905518982312E-07,-0.001153495744802,-4.85038663100568E-06,-22.0056610107422,61.223690032959,0.001411399804056,-0.596548557281494,-0.045659810304642,1.64508837769972E-05
1280,30.4350202986388,2.38799381256104,-0.015215402469039,9.81308555603027,1.81528747589255E-08,-0.001179715967737,-5.62877130505513E-06,-21.965030670166,61.2232666015625,0.001415595994331,-0.596551597118378,-0.044990453869104,1.64637949637836E-05
1281,30.4450202984153,2.90785193443298,-0.009801217354834,9.79935932159424,5.66003599544729E-09,-0.001054143416695,-5.17586022397154E-06,-21.9241104125977,61.2228393554688,0.001418952946551,-0.596554577350616,-0.044389396905899,1.64694083650829E-05
1282,30.4550202981918,2.38736891746521,0.024782676249743,9.81313896179199,6.87491237272297E-08,-0.001080023706891,-4.86112594444421E-06,-21.8829536437988,61.222412109375,0.001422805711627,-0.596557259559631,-0.043774679303169,1.65109286172083E-05
1283,30.4650202979683,2.84723949432373,0.029572213068605,9.79984378814697,-8.0450917039343E-08,-0.000962926016655,-5.23061453350238E-06,-21.8415107727051,61.221981048584,0.001425857539289,-0.596560657024383,-0.043221436440945,1.64671419042861E-05
1284,30.4750202977448,2.40800881385803,-0.055004503577948,9.81317043304443,-1.34122998929342E-07,-0.000985906925052,-5.63119920116151E-06,-21.7998294830322,61.2215461730957,0.001429405179806,-0.596563756465912,-0.042654529213905,1.63926633831579E-05
1285,30.4850202975213,2.82747340202332,-0.010633575730026,9.79991149902344,-2.02516247327367E-07,-0.000881935993675,-5.57801968170679E-06,-21.7578659057617,61.2211074829102,0.001432151766494,-0.596566915512085,-0.042149096727371,1.62789456226164E-05
1286,30.4950202972977,2.40700006484985,0.0249914675951,9.81130504608154,8.61045464262133E-07,-0.000899496488273,-4.52597851108294E-06,-21.7156620025635,61.2206687927246,0.00143520347774,-0.596569538116455,-0.04163683205843,1.67742400662974E-05
1287,30.5050202970742,2.747314453125,-0.011466189287603,9.80497646331787,-9.891283525576E-08,-0.000809205812402,-4.64946697320556E-06,-21.6731834411621,61.2202224731445,0.001437950064428,-0.59657233953476,-0.041172377765179,1.67195103131235E-05
1288,30.5150202968507,2.44683575630188,0.025408135727048,9.80826473236084,2.79107752021446E-07,-0.000818071828689,-2.38475126934645E-06,-21.6304607391357,61.2197799682617,0.001440696651116,-0.5965735912323,-0.040701095014811,1.68803744600154E-05
1289,30.5250202966272,2.72716283798218,-0.011674301698804,9.80579566955566,-6.19433251358714E-07,-0.000745730532799,-3.59784326064982E-06,-21.5874671936035,61.2193298339844,0.001443214365281,-0.596575677394867,-0.040277622640133,1.65269630088005E-05
1290,30.5350202964037,2.40710806846619,-0.015006137080491,9.80794906616211,-3.96079570919028E-07,-0.000743791752029,-2.11760971069452E-06,-21.5442333221436,61.218879699707,0.001445693895221,-0.596576869487762,-0.039847321808338,1.63008444360457E-05
1291,30.5450202961802,2.68660759925842,0.027907233685255,9.80662727355957,1.13602720830386E-06,-0.000688356580213,-2.19118760469428E-06,-21.500732421875,61.2184257507324,0.001448020921089,-0.596578061580658,-0.03945117071271,1.69526520039653E-05
1292,30.5550202959566,2.48696947097778,-0.014173000119627,9.80830669403076,-3.19967966788681E-07,-0.000677749805618,-1.50439529988944E-06,-21.4569816589355,61.2179718017578,0.001450347830541,-0.596579015254974,-0.039061848074198,1.67699399753474E-05
1293,30.5650202957331,2.58648443222046,0.026866119354963,9.8063497543335,1.74156355114974E-07,-0.000635856238659,-2.49043546318717E-06,-21.4129734039307,61.2175140380859,0.001452484051697,-0.596580445766449,-0.038699850440025,1.68706828844734E-05
1294,30.5750202955096,2.50684523582458,-0.013964669778943,9.80756282806397,-5.53763072730362E-07,-0.000619699829258,-2.63799302047119E-06,-21.3687152862549,61.2170524597168,0.001454544020817,-0.596581876277924,-0.03834468126297,1.65543988259742E-05
1295,30.5850202952861,2.54678559303284,-0.01354818046093,9.80755043029785,-5.15324472871725E-07,-0.000588405062445,-2.2790979983256E-06,-21.3242034912109,61.2165908813477,0.001456527621485,-0.596583127975464,-0.038010001182556,1.62599772011163E-05
1296,30.5950202950626,2.48631644248962,0.025825086981058,9.80760478973389,8.26478242288431E-07,-0.000569109048229,-3.29677232002723E-06,-21.2794437408447,61.2161254882813,0.001458434970118,-0.596585094928741,-0.03768215328455,1.67348043760285E-05
1297,30.6050202948391,2.52667665481567,-0.013756246306002,9.80759239196777,-8.262093160738E-07,-0.000541874498595,-3.69006193068344E-06,-21.2344303131103,61.2156562805176,0.001460266066715,-0.596587181091309,-0.037367962300778,1.62627638928825E-05
1298,30.6150202946155,2.52704405784607,-0.05375400185585,9.80760478973389,-1.48086769513611E-07,-0.000522258575074,-3.33811476593837E-06,-21.1891670227051,61.2151832580566,0.001462020794861,-0.596589148044586,-0.037081096321344,1.6179219528567E-05
1299,30.625020294392,2.50574684143066,0.066031232476235,9.80763053894043,-6.51031768938992E-07,-0.000499011948705,-2.31453827836958E-06,-21.1436538696289,61.2147102355957,0.001463699270971,-0.596590340137482,-0.036794226616621,1.5807074305485E-05
1300,30.6350202941685,2.50694823265076,-0.053962111473084,9.80764198303223,7.91707577718626E-07,-0.000479660724523,-2.82550672636717E-06,-21.0978908538818,61.2142333984375,0.001465301495045,-0.596591949462891,-0.036514189094305,1.6261670680251E-05
1301,30.645020293945,2.46565675735474,0.06561503559351,9.80805969238281,7.01044484685554E-07,-0.000458014226751,-3.18663319376355E-06,-21.0518798828125,61.213752746582,0.001466865534894,-0.596593797206879,-0.036254640668631,1.66645477293059E-05
1302,30.6550202937215,2.50685930252075,-0.053961891680956,9.80728530883789,-3.96652325207469E-07,-0.000439538096543,-4.16947341363994E-06,-21.0056190490723,61.2132682800293,0.001468315138482,-0.596596300601959,-0.035995095968247,1.64387674885802E-05
1303,30.6650202934979,2.46598792076111,0.025617321953178,9.80807971954346,-1.85744937652999E-07,-0.000420805445174,-2.76791411124577E-06,-20.959114074707,61.2127876281738,0.001469726557843,-0.596597850322723,-0.035756036639214,1.63333479576977E-05
1304,30.6750202932744,2.5263614654541,-0.013755697757006,9.80805587768555,-4.73673708256683E-07,-0.000403426645789,-4.25306734541664E-06,-20.9123554229736,61.2122993469238,0.00147109979298,-0.596600353717804,-0.035523813217878,1.60634826897876E-05
1305,30.6850202930509,2.44591164588928,0.025409186258912,9.80773162841797,-3.74536824665483E-07,-0.000385263905628,-3.50002551385842E-06,-20.8653526306152,61.2118110656738,0.00147239677608,-0.596602380275726,-0.035305246710777,1.58501698024338E-05
1306,30.6950202928274,2.46629071235657,-0.014380264095962,9.80772876739502,4.09302828074942E-07,-0.00036763359094,-3.95259075958165E-06,-20.8181056976318,61.2113151550293,0.001473617507145,-0.596604526042938,-0.035093508660793,1.6086058167275E-05
1307,30.7050202926039,2.50625371932983,-0.013963730074465,9.8080940246582,-1.81289024681064E-07,-0.000352400151314,-2.0763800421264E-06,-20.7706069946289,61.210823059082,0.001474800053984,-0.596605658531189,-0.034888602793217,1.59828668984119E-05
1308,30.7150202923804,2.44580793380737,0.025409325957298,9.80814170837402,-1.05370293113083E-06,-0.000336953555234,-3.17009153150138E-06,-20.7228660583496,61.2103271484375,0.001475944533013,-0.596607565879822,-0.034697357565165,1.53802393469959E-05
1309,30.7250202921568,2.48619031906128,-0.014171876013279,9.80774021148682,3.81062761789508E-07,-0.000321759813232,-3.66100334758812E-06,-20.6748752593994,61.2098274230957,0.001477012643591,-0.596609592437744,-0.03451294451952,1.55998313857708E-05
1310,30.7350202919333,2.46574592590332,0.025617739185691,9.80814170837402,-5.10673828557628E-07,-0.000307001464535,-3.61554816663556E-06,-20.6266403198242,61.2093238830566,0.001478042569943,-0.596611678600311,-0.034342188388109,1.53085347847082E-05
1311,30.7450202917098,2.44613432884216,-0.01458831038326,9.80816268920898,-4.10964986485851E-07,-0.000294218829367,-2.96873849947588E-06,-20.5781593322754,61.2088203430176,0.001479034428485,-0.596613347530365,-0.034171435981989,1.50740524986759E-05
1312,30.7550202914863,2.46610498428345,-0.014380028471351,9.80815601348877,-3.38998432880544E-07,-0.000280424021184,-2.51337655754469E-06,-20.5294322967529,61.2083129882813,0.001479988102801,-0.59661477804184,-0.034007508307695,1.48806711877114E-05
1313,30.7650202912628,2.46566390991211,0.025617925450206,9.8081636428833,4.33612200367861E-07,-0.000268177071121,-3.20991443913954E-06,-20.4804611206055,61.2078056335449,0.001480903592892,-0.596616685390472,-0.033864077180624,1.51302274389309E-05
1314,30.7750202910393,2.46605348587036,-0.014379772357643,9.80778884887695,2.18415678432393E-07,-0.000255534396274,-4.52152926300187E-06,-20.4312438964844,61.2072944641113,0.001481742830947,-0.596619307994843,-0.033706981688738,1.52568809426157E-05
1315,30.7850202908157,2.44644808769226,-0.054585658013821,9.80856609344482,7.37640448278398E-07,-0.000244710186962,-5.2119276006124E-06,-20.3817825317383,61.2067756652832,0.001482582069002,-0.596622288227081,-0.033570379018784,1.56812675413676E-05
1316,30.7950202905922,2.44517493247986,0.065407864749432,9.80781269073486,-5.09327321651654E-07,-0.000233748869505,-3.3846313272079E-06,-20.3320751190186,61.2062568664551,0.001483345055021,-0.596624255180359,-0.033433772623539,1.53905566548929E-05
1317,30.8050202903687,2.44640374183655,-0.054585505276918,9.80857944488525,4.80234632505017E-07,-0.000222059214138,-2.75872298516333E-06,-20.2821254730225,61.2057342529297,0.001484107924625,-0.596625864505768,-0.033310830593109,1.56666501425207E-05
1318,30.8150202901452,2.48513078689575,0.065824598073959,9.80818176269531,7.06273624473397E-07,-0.000212556798942,-1.47744015066564E-06,-20.2319278717041,61.2052116394043,0.001484832726419,-0.596626579761505,-0.033187888562679,1.60717681865208E-05
1319,30.8250202899217,2.4267692565918,-0.054793354123831,10.5177536010742,7.26841392406641E-07,-0.000238273380091,-1.48034337144054E-06,-20.1814880371094,61.2046852111816,0.001556472736411,-0.596627473831177,-0.033051282167435,1.64887405844638E-05
1320,30.8350202896982,2.42543196678162,0.025202013552189,9.68157958984375,-7.2576165166538E-07,-0.000225323354243,-8.59511146700243E-07,-20.1308059692383,61.204158782959,0.001615409855731,-0.596627950668335,-0.032921511679888,1.60731487994781E-05
1321,30.8450202894746,2.50585532188416,-0.013962774537504,9.70098686218262,-1.97687541003688E-07,-0.000193814033992,-1.18050684250193E-06,-20.0798740386963,61.2036247253418,0.001663589384407,-0.596627950668335,-0.032921511679888,1.60731487994781E-05
1322,30.8550202892511,2.34541869163513,0.024368962273002,9.7171106338501,-5.35783840405202E-07,-0.000201938892133,-6.56927568343235E-07,-20.0287075042725,61.2030944824219,0.001702613779344,-0.596629023551941,-0.032696112990379,1.56535188580165E-05
1323,30.8650202890276,2.54583168029785,-0.013546271249652,9.72996711730957,-8.90427500621627E-08,-0.000158531460329,4.09640188081539E-06,-19.9772891998291,61.2025566101074,0.001733779907227,-0.596629023551941,-0.032696112990379,1.56535188580165E-05
1324,30.8750202888041,2.30581951141357,-0.016045063734055,9.74498748779297,8.19624474956981E-08,-0.000197123838007,-1.76657831616467E-05,-19.9256362915039,61.202018737793,0.001758575439453,-0.596636772155762,-0.03249803930521,1.5653895388823E-05
1325,30.8850202885806,1.14501106739044,0.051870837807655,9.76396465301514,1.28347335248691E-06,-0.000505702861119,6.14764358033426E-05,-19.873872756958,61.2014846801758,0.00177883147262,-0.596601545810699,-0.032211169600487,1.63693948707078E-05
1326,30.895020288357,1.0057692527771,-0.029582314193249,9.77701854705811,-1.34629749481974E-06,-0.00090303295292,-3.76581847376656E-05,-19.8220100402832,61.2009391784668,0.001795844989829,-0.596623241901398,-0.031685244292021,1.56100195454201E-05
1327,30.9050202881335,-5.07455015182495,-0.052895620465279,9.83289241790772,3.45915964317101E-07,-0.002670079469681,-2.05349733732874E-05,-19.7706546783447,61.2004051208496,0.001814880291931,-0.596635043621063,-0.030155284330249,1.58145758177852E-05
1328,30.91502028791,1.48441600799561,0.055411908775568,9.76538467407227,-3.83895667255274E-07,-0.0023238430731,-6.19205047769356E-06,-19.7191505432129,61.1998672485352,0.001829528715462,-0.596638560295105,-0.028823396191001,1.55964680743637E-05
1329,30.9250202876865,-2.47563624382019,0.014175937511027,9.80469036102295,6.79950971971266E-07,-0.00292727467604,-3.60289163836569E-06,-19.6678924560547,61.199333190918,0.001843528705649,-0.596640765666962,-0.027150001376867,1.59870869538281E-05
1330,30.935020287463,1.78471577167511,-0.021459693089128,9.76761627197266,-1.2215058120546E-07,-0.002351528033614,-2.09289382269162E-07,-19.6164588928223,61.1987991333008,0.001853370573372,-0.596640765666962,-0.025783963501453,1.59171813720604E-05
1331,30.9450202872395,-2.75613975524902,0.011260101571679,9.81383228302002,-1.68417130907983E-07,-0.002971750684083,-4.45438354290673E-06,-19.5653018951416,61.1982650756836,0.001863479614258,-0.596643328666687,-0.02409690618515,1.58217808348127E-05
1332,30.9550202870159,2.16461086273193,-0.057500410825014,9.76793956756592,-2.7227352461523E-07,-0.00218262616545,-2.85396254184889E-06,-19.5139274597168,61.1977272033691,0.001869468600489,-0.596644997596741,-0.022846981883049,1.56664846144849E-05
1333,30.9650202867924,-2.35705518722534,0.055423054844141,9.81621646881104,-8.49137364866692E-08,-0.002689206274226,-2.33699256568798E-06,-19.4627895355225,61.1971969604492,0.001875991816632,-0.596646368503571,-0.021303359419108,1.56183486978989E-05
1334,30.9750202865689,2.4037401676178,-0.015003258362413,9.77138614654541,7.32132377834205E-07,-0.001835479866713,-1.13796738787642E-06,-19.4114112854004,61.1966590881348,0.00187873840332,-0.596646964550018,-0.020251510664821,1.60380568559049E-05
1335,30.9850202863454,-2.13705921173096,0.017716139554978,9.81947898864746,1.68932707822478E-08,-0.002319197868928,-2.32919637710438E-06,-19.3602466583252,61.1961250305176,0.001882362295873,-0.596648395061493,-0.018912792205811,1.6048199540819E-05
1336,30.9950202861219,2.66294455528259,0.027702178806067,9.77368545532227,1.15354532681522E-06,-0.001430733362213,1.07977120933356E-06,-19.30881690979,61.1955947875977,0.001882438664325,-0.59664785861969,-0.018106831237674,1.67089310707524E-05
1337,31.0050202858984,-1.87698233127594,-0.019574133679271,9.82314491271973,-2.55722127917579E-08,-0.001913455314934,-1.5675821032346E-06,-19.2575759887695,61.1950607299805,0.001883773715235,-0.596648693084717,-0.017007170245051,1.66945737873903E-05
1338,31.0150202856748,2.90306186676025,-0.009796503931284,9.77598190307617,-7.28413453998655E-07,-0.001020074123517,3.17192643706221E-07,-19.2060432434082,61.1945266723633,0.001881790114567,-0.596648514270783,-0.016426604241133,1.62771848408738E-05
1339,31.0250202854513,-1.65682637691498,-0.057281229645014,9.82570934295654,-8.72813643582049E-07,-0.001517983502708,-2.45628916673013E-06,-19.1546764373779,61.1939888000488,0.001881332369521,-0.596649885177612,-0.015552340075374,1.57774738909211E-05
1340,31.0350202852278,3.10200786590576,0.072281770408154,9.77866077423096,-1.02287657455236E-07,-0.000633772055153,9.77146896730119E-07,-19.1030006408691,61.1934509277344,0.001877822796814,-0.596649408340454,-0.015190339647234,1.57187459990382E-05
1341,31.0450202850043,-1.43743121623993,-0.014992487616837,9.82753276824951,-1.36470717393422E-07,-0.001153378398158,-5.17714454417728E-07,-19.0514698028564,61.1929130554199,0.001876029884443,-0.596649706363678,-0.014520981349051,1.56406258611241E-05
1342,31.0550202847808,3.2831072807312,-0.045837286859751,9.78018569946289,8.13864346582704E-07,-0.000286137976218,1.43769818805595E-06,-18.9996109008789,61.1923713684082,0.001871337881312,-0.596648871898651,-0.014363886788488,1.61067309818463E-05
1343,31.0650202845572,-1.25838255882263,0.066877752542496,9.82938003540039,8.91805143510283E-07,-0.000830428558402,1.40918857027827E-07,-18.9478759765625,61.1918334960938,0.001868553110398,-0.596648871898651,-0.013885773718357,1.6617683286313E-05
1344,31.0750202843337,3.4830150604248,-0.043754544109106,9.78207206726074,-5.51842838092398E-08,1.5561554391752E-05,2.35627544498129E-06,-18.8957939147949,61.191291809082,0.001863059937023,-0.596648871898651,-0.013885773718357,1.6617683286313E-05
1345,31.0850202841102,-1.07802712917328,0.028754333034158,9.83009338378906,-9.58726289468359E-08,-0.00055120367324,7.41505488122129E-08,-18.8438186645508,61.1907501220703,0.001859550480731,-0.596647381782532,-0.013585245236755,1.65307992574526E-05
1346,31.0950202838867,3.62298345565796,-0.042296778410673,9.78357315063477,8.2897520314873E-07,0.00027100299485,2.02056389753125E-06,-18.791482925415,61.1902046203613,0.001853485009633,-0.596646368503571,-0.013742339797318,1.70054845511913E-05
1347,31.1050202836632,-0.898457825183868,0.070626594126225,9.83157539367676,-7.40309076263657E-07,-0.000317001831718,1.21265509278601E-06,-18.7392387390137,61.1896629333496,0.001849555876106,-0.596645534038544,-0.013557924889028,1.6581154341111E-05
1348,31.1150202834397,3.76299262046814,-0.040839213877916,9.7846794128418,-9.45584190503723E-07,0.000483502662973,1.87534374163079E-06,-18.6866149902344,61.1891136169434,0.001843185396865,-0.596644282341003,-0.013837962411344,1.60391045938013E-05
1349,31.1250202832161,-0.777583122253418,-0.008119558915496,9.83193206787109,6.70879046538175E-07,-0.000123294536024,-1.03288904540477E-07,-18.6340713500977,61.1885681152344,0.00183898920659,-0.596644282341003,-0.013837962411344,1.60391045938013E-05
1350,31.1350202829926,3.90261960029602,0.000616406498011,9.78500652313232,-1.78845013465434E-07,0.000653963710647,3.09481015392521E-06,-18.5811386108398,61.1880149841309,0.001832389738411,-0.596642732620239,-0.014138490892947,1.63206113938941E-05
1351,31.1450202827691,-0.657537758350372,-0.006869905162603,9.83305072784424,-1.25284657315206E-07,3.27600246237125E-05,1.47642390402325E-06,-18.5282707214355,61.1874656677246,0.001828079228289,-0.596642732620239,-0.014138490892947,1.63206113938941E-05
1352,31.1550202825456,4.00269508361816,0.001657534856349,9.78571128845215,-2.41324130456633E-07,0.000788876030128,2.27673172048526E-06,-18.4750022888184,61.1869087219238,0.001821441575885,-0.596640467643738,-0.014609773643315,1.61100215336774E-05
1353,31.1650202823221,-0.517880916595459,0.034585755318403,9.83340358734131,-8.51517086175591E-07,0.000154195178766,1.34528613671137E-06,-18.4217853546143,61.1863555908203,0.001817130949348,-0.596640467643738,-0.014609773643315,1.61100215336774E-05
1354,31.1750202820986,4.10279226303101,0.002698658965528,9.78602313995361,6.36883044080605E-07,0.000890847994015,2.96232906293881E-06,-18.3681602478027,61.1857986450195,0.001810531597584,-0.596638143062592,-0.01521083060652,1.59864230226958E-05
1355,31.185020281875,-0.417343020439148,-0.004370793234557,9.83414649963379,-3.47838863490324E-07,0.000247356336331,8.86056284343795E-07,-18.3145751953125,61.1852416992187,0.001806335407309,-0.596637606620789,-0.015347434207797,1.5786970834597E-05
1356,31.1950202816515,4.16290807723999,0.00332334660925,9.78595733642578,4.42247056753331E-07,0.000966372899711,1.61812488386204E-06,-18.2605762481689,61.1846809387207,0.001799850375392,-0.596636652946472,-0.015907509252429,1.60401159519097E-05
1357,31.205020281428,-0.316805422306061,-0.04332722723484,9.83374118804932,3.70704270835631E-07,0.000315665703965,-4.45334848109269E-07,-18.2066078186035,61.1841201782227,0.001795730553567,-0.596636831760407,-0.016085093840957,1.62525684572756E-05
1358,31.2150202812045,4.24261713027954,0.044154163450003,9.78702259063721,-6.92672358582058E-07,0.001018245704472,9.80176992015913E-07,-18.1522159576416,61.1835517883301,0.001789436326362,-0.596636235713959,-0.016665659844875,1.58555612870259E-05
1359,31.225020280981,-0.216674879193306,-0.042286116629839,9.83371639251709,-1.3090433412799E-06,0.000361583894119,-7.43655732549087E-07,-18.0978469848633,61.1829872131348,0.001785507192835,-0.596636652946472,-0.016877396032214,1.51056365211844E-05
1360,31.2350202807575,4.2835865020752,-0.035424940288067,9.78733158111572,1.02566013993055E-06,0.001050473074429,-5.54534892671654E-07,-18.0430469512939,61.1824111938477,0.001779441838153,-0.59663712978363,-0.01747845299542,1.56933874677634E-05
1361,31.2450202805339,-0.13737054169178,0.038542646914721,9.83331108093262,-4.47499672873164E-07,0.000390737666748,9.52987420532736E-07,-17.9882640838623,61.1818389892578,0.001775703392923,-0.596636593341827,-0.017703849822283,1.54368299263297E-05
1362,31.2550202803104,4.34330892562866,0.005197379738092,9.78763389587402,-2.81055605455549E-07,0.001066224649549,4.0545219235355E-06,-17.9330444335938,61.1812629699707,0.001769866910763,-0.596634149551392,-0.018311735242605,1.52750653796829E-05
1363,31.2650202800869,-0.076812840998173,-0.000830438861158,9.83405685424805,-1.83848356982708E-07,0.000404273712775,1.3453112615025E-06,-17.877836227417,61.1806869506836,0.001766433706507,-0.596633493900299,-0.018543962389231,1.51694903252064E-05
1364,31.2750202798634,4.40345096588135,0.00582192838192,9.78716564178467,-2.56008725330048E-08,0.001067300676368,3.77536775886256E-06,-17.8221855163574,61.1801071166992,0.00176086416468,-0.596631348133087,-0.019158679991961,1.51541180457571E-05
1365,31.2850202796399,-0.056668817996979,-0.000622173887677,9.83329010009766,2.7576124494999E-08,0.000406217208365,3.81379572900187E-06,-17.7665405273438,61.1795234680176,0.001757621765137,-0.596629142761231,-0.019390905275941,1.51691647261032E-05
1366,31.2950202794163,4.48400545120239,-0.033343259245157,9.78821659088135,1.34558740683133E-06,0.001057803980075,7.92502487456659E-06,-17.71044921875,61.1789398193359,0.001752357464284,-0.596624493598938,-0.019991962239146,1.59385726874461E-05
1367,31.3050202791928,-0.016945797950029,0.039792444556952,9.8328971862793,1.37686004109128E-06,0.000397810741561,4.69098222311004E-06,-17.6543579101563,61.178352355957,0.001749382005073,-0.596621870994568,-0.02021735906601,1.67264988704119E-05
1368,31.3150202789693,4.52414464950562,-0.032927107065916,9.78775691986084,8.59516603668453E-07,0.00103932688944,8.32640307635302E-06,-17.5978183746338,61.1777610778809,0.001744346576743,-0.596617221832275,-0.020818416029215,1.72172585735098E-05
1369,31.3250202787458,0.023609342053533,0.000211192134884,9.83326053619385,-1.63157992005836E-07,0.00038146879524,6.72351006869576E-06,-17.5412731170654,61.1771697998047,0.001741638174281,-0.596613228321075,-0.021036980673671,1.71223600773374E-05
1370,31.3350202785223,4.52386474609375,0.007069977466017,9.78807735443115,2.80129881957691E-07,0.001015008427203,9.83660629572114E-06,-17.4842777252197,61.1765747070313,0.001736907870509,-0.596607625484467,-0.02161754667759,1.72807813214604E-05
1371,31.3450202782988,0.083740599453449,0.000835996877868,9.83247661590576,3.21922925650142E-07,0.000358142395271,7.83486939326394E-06,-17.4272747039795,61.1759796142578,0.001734428340569,-0.596603095531464,-0.021822452545166,1.746351881593E-05
1372,31.3550202780752,4.5439944267273,0.007277435157448,9.78876972198486,-1.85718135981006E-07,0.000984223326668,9.86879422271159E-06,-17.369815826416,61.1753807067871,0.001730003277771,-0.59659743309021,-0.022382529452443,1.73549015016761E-05
1373,31.3650202778517,0.103868141770363,0.001044324599206,9.83170318603516,1.17311799385789E-06,0.000331400166033,8.56158112583216E-06,-17.3123474121094,61.1747779846191,0.001727752620354,-0.596592545509338,-0.022573774680495,1.80251627170946E-05
1374,31.3750202776282,4.58411741256714,0.007693029940128,9.78869819641113,-4.36462705977192E-08,0.000950442336034,1.36416338136769E-05,-17.2544231414795,61.1741752624512,0.001723556430079,-0.596584737300873,-0.023113358765841,1.79970229510218E-05
1375,31.3850202774047,0.124406762421131,-0.03874521702528,9.83207607269287,7.64805008657277E-07,0.000301588675939,1.02222757050185E-05,-17.1964836120605,61.1735687255859,0.00172157282941,-0.59657895565033,-0.023290943354368,1.84328855539206E-05
1376,31.3950202771812,4.60381984710693,0.047898225486279,9.78863334655762,8.38702192140772E-07,0.000913592870347,1.24298185255611E-05,-17.1380863189697,61.1729583740234,0.001717643695883,-0.596571922302246,-0.023816868662834,1.8910463040811E-05
1377,31.4050202769577,0.164521619677544,-0.038328606635332,9.83167457580566,8.89669991011033E-07,0.000269139622105,1.17092677101027E-05,-17.0796718597412,61.1723480224609,0.001715888967738,-0.596565067768097,-0.023973962292075,1.9417409930611E-05
1378,31.4150202767341,4.56435060501099,0.007482786662877,9.78859901428223,4.68282195242864E-07,0.000876033038367,1.59145529323723E-05,-17.0208015441895,61.1717338562012,0.001712188706733,-0.596556007862091,-0.024472566321492,1.96818436961621E-05
1379,31.4250202765106,0.223794430494308,0.042291726917029,9.83164787292481,-2.12394724030673E-07,0.000236455292907,1.36478702188469E-05,-16.9619083404541,61.1711158752441,0.00171066285111,-0.596548080444336,-0.024609170854092,1.95567990886047E-05
1380,31.4350202762871,4.5848708152771,-0.032308213412762,9.78815746307373,-4.67323637565187E-08,0.000836972787511,1.62657561304513E-05,-16.9025592803955,61.1704978942871,0.001707153278403,-0.596538841724396,-0.025087283924222,1.95259945030557E-05
1381,31.4450202760636,0.224729478359222,-0.037703935056925,9.83202743530273,7.60097350394062E-07,0.000202038048883,1.46498387039173E-05,-16.8431873321533,61.1698760986328,0.001705856295303,-0.596530377864838,-0.025203397497535,1.99578189494787E-05
1382,31.4550202758401,4.58413648605347,0.04768605157733,9.78849220275879,1.13677072022256E-06,0.00079900858691,1.98661273316247E-05,-16.7833576202393,61.1692504882813,0.001702613779344,-0.596518993377685,-0.025661019608379,2.06041040655691E-05
1383,31.4650202756165,0.264389038085937,0.002710403874516,9.8312463760376,2.59272042058001E-07,0.0001687756303,1.75814511749195E-05,-16.7235012054443,61.1686248779297,0.00170150748454,-0.596518993377685,-0.025661019608379,2.06041040655691E-05
1384,31.475020275393,4.5846438407898,0.007686621975154,9.78883075714111,8.84709834281239E-07,0.000760491879191,1.9639743186417E-05,-16.6631889343262,61.1679954528809,0.00169849395752,-0.596497654914856,-0.026193773373962,2.12499071494676E-05
1385,31.4850202751695,0.254897087812424,-0.037391521036625,9.83048534393311,7.994789825716E-07,0.000135524809593,1.86130364454584E-05,-16.6028480529785,61.167366027832,0.001697540283203,-0.596497654914856,-0.026193773373962,2.12499071494676E-05
1386,31.495020274946,4.58472681045532,0.007684879470617,9.78841114044189,1.14039175969083E-06,0.000723218254279,2.34653052757494E-05,-16.5420513153076,61.1667327880859,0.001694641076028,-0.596473515033722,-0.026678716763854,2.23503047891427E-05
1387,31.5050202747225,0.314144551753998,0.043228838592768,9.83121776580811,9.51026265738619E-07,0.000103430917079,1.93835257960018E-05,-16.4812240600586,61.1660957336426,0.001693878090009,-0.596473515033722,-0.026678716763854,2.23503047891427E-05
1388,31.515020274499,4.56522369384766,-0.032522901892662,9.7887659072876,-5.75664103052986E-07,0.000687645166181,1.97041808860376E-05,-16.4199390411377,61.1654586791992,0.001691207871772,-0.596451103687286,-0.027143171057105,2.25548501475714E-05
1389,31.5250202742754,0.294641554355621,0.003022725926712,9.83084392547607,1.15337445549812E-06,7.11973698344082E-05,1.98568723135395E-05,-16.3586254119873,61.1648178100586,0.001690635690466,-0.596451103687286,-0.027143171057105,2.25548501475714E-05
1390,31.5350202740519,4.60487413406372,0.00788938999176,9.78794956207275,6.42394752503606E-07,0.000653579772916,2.56727071246132E-05,-16.296854019165,61.1641731262207,0.001688079792075,-0.596424877643585,-0.027552980929613,2.35713250731351E-05
1391,31.5450202738284,0.2947116792202,0.003022767370567,9.83046054840088,-2.36689814414603E-07,4.18970012106001E-05,2.16720254684333E-05,-16.2350521087646,61.1635284423828,0.001687583862804,-0.596424877643585,-0.027552980929613,2.35713250731351E-05
1392,31.5550202736049,4.57535600662231,-0.03242276981473,9.78907871246338,1.42714258188903E-08,0.000620187434833,2.26755673793377E-05,-16.1727924346924,61.1628799438477,0.001685218769126,-0.596399545669556,-0.027914982289076,2.34316303249216E-05
1393,31.5650202733814,0.3243567943573,0.04333271458745,9.83006381988525,-6.27467215963407E-08,1.43416318678646E-05,2.24412360694259E-05,-16.110502243042,61.1622314453125,0.001684875460342,-0.596399545669556,-0.027914982289076,2.34316303249216E-05
1394,31.5750202731579,4.57541656494141,-0.032425031065941,9.78866958618164,6.79561011907026E-08,0.000588756753132,2.68317344307434E-05,-16.0477542877197,61.1615753173828,0.001682624802925,-0.596371173858643,-0.028276981785894,2.34208182519069E-05
1395,31.5850202729343,0.334417581558228,0.043436639010906,9.83081817626953,5.65915797778871E-07,-1.22317424029461E-05,2.26624142669607E-05,-15.9849729537964,61.1609230041504,0.001682472182438,-0.596371173858643,-0.028276981785894,2.34208182519069E-05
1396,31.5950202727108,4.55547046661377,-0.032635156065226,9.78789234161377,6.35660342140909E-07,0.000558896455914,2.28710123337805E-05,-15.9217367172241,61.1602630615234,0.001680335961282,-0.596345126628876,-0.028591170907021,2.40963618125534E-05
1397,31.6050202724873,0.354886740446091,0.003646934172139,9.83080673217773,-1.35916150156845E-06,-3.72867434634827E-05,1.51503327288083E-05,-15.8584651947021,61.1596031188965,0.001680297777057,-0.596345126628876,-0.028591170907021,2.40963618125534E-05
1398,31.6150202722638,4.54510307312012,0.007256834767759,9.78825569152832,-1.49333391163964E-06,0.000531166035216,1.73952303157421E-05,-15.7947406768799,61.1589393615723,0.001678314176388,-0.596326410770416,-0.028871208429337,2.24526756937848E-05
1399,31.6250202720403,0.364933848381042,0.003750614123419,9.83003520965576,-1.21414075238135E-06,-6.05478526267689E-05,1.25274591482594E-05,-15.7309799194336,61.1582756042481,0.001678352360614,-0.596326410770416,-0.028871208429337,2.24526756937848E-05
1400,31.6350202718168,4.54514789581299,0.007255439180881,9.78900051116943,-1.3528690487874E-06,0.000505824864376,1.26755985547788E-05,-15.6667652130127,61.1576042175293,0.001676521264017,-0.596311986446381,-0.029130754992366,2.09745958272833E-05
1401,31.6450202715932,0.354978561401367,0.003646195633337,9.82927703857422,-6.01434692271141E-07,-8.2482656580396E-05,1.1545914276212E-05,-15.6025142669678,61.1569366455078,0.001676635700278,-0.596311986446381,-0.029130754992366,2.09745958272833E-05
1402,31.6550202713697,4.53560304641724,-0.032847721129656,9.78860282897949,-7.4170952757413E-07,0.000480871764012,1.30498519865796E-05,-15.5378122329712,61.1562614440918,0.001674842787907,-0.596297860145569,-0.029356151819229,2.01978655240964E-05
1403,31.6650202711462,0.384599715471268,0.043956026434898,9.83002471923828,-9.19245792374568E-07,-0.000102654288639,9.65501658356516E-06,-15.4730710983276,61.1555900573731,0.001675071660429,-0.596297860145569,-0.029356151819229,2.01978655240964E-05
1404,31.6750202709227,4.50564193725586,-0.033160772174597,9.78860092163086,1.14385557026253E-06,0.000458602095023,9.46588806982618E-06,-15.4078788757324,61.1549110412598,0.001673393184319,-0.59628689289093,-0.02957471832633,2.0320896510384E-05
1405,31.6850202706992,0.405052185058594,0.004166279453784,9.82962989807129,-1.26131953948061E-06,-0.000121161603602,8.44201713334769E-06,-15.3426485061646,61.1542320251465,0.001673698425293,-0.59628689289093,-0.02957471832633,2.0320896510384E-05
1406,31.6950202704757,4.4952540397644,0.006731940433383,9.78859424591064,-1.40229462886055E-06,0.000437715440057,9.14969587029191E-06,-15.2769689559937,61.1535491943359,0.001672096201219,-0.596276819705963,-0.029738642275333,1.87895475391997E-05
1407,31.7050202702521,0.40466383099556,0.044163778424263,9.82924842834473,-2.98027948986146E-08,-0.000138678427902,5.66981589145144E-06,-15.2112483978271,61.1528663635254,0.001672439510003,-0.596276819705963,-0.029738642275333,1.87895475391997E-05
1408,31.7150202700286,4.4861159324646,-0.073368482291699,9.78973007202148,-1.06862478332914E-06,0.000418288342189,7.22528147889534E-06,-15.1450805664063,61.1521759033203,0.001670989906415,-0.596269369125366,-0.029902566224337,1.81563573278254E-05
1409,31.7250202698051,0.414691030979157,0.044267684221268,9.82847881317139,-9.7987674507749E-07,-0.000154120934894,5.45380908079096E-06,-15.0788717269897,61.1514892578125,0.001671409583651,-0.596269369125366,-0.029902566224337,1.81563573278254E-05
1410,31.7350202695816,4.47530937194824,0.006522390525788,9.78934288024902,-1.42158910421131E-06,0.000399216136429,5.35238814336481E-06,-15.0122156143188,61.1507949829102,0.001669998164289,-0.59626317024231,-0.030052831396461,1.67772213899298E-05
1411,31.7450202693581,0.41513329744339,0.004269571509212,9.82885932922363,-1.50005297072653E-09,-0.000168871920323,2.50411858360167E-06,-14.9455184936523,61.1501007080078,0.00167049409356,-0.59626317024231,-0.030052831396461,1.67772213899298E-05
1412,31.7550202691345,4.47574615478516,-0.033475838601589,9.78895092010498,-6.94299046699598E-07,0.000382726313546,4.90465936309192E-06,-14.8783750534058,61.1494026184082,0.001669120742008,-0.596258997917175,-0.03017577342689,1.63763379532611E-05
1413,31.765020268911,0.404718726873398,0.044163148850203,9.82886219024658,-8.06084415216901E-07,-0.000182281481102,3.10878522213898E-06,-14.8111906051636,61.1487045288086,0.001669654855505,-0.596257150173187,-0.030059661716223,1.59135324793169E-05
1414,31.7750202686875,4.46576356887817,-0.033580277115107,9.78933429718018,-2.66557350414587E-07,0.000367560423911,3.20019807986682E-06,-14.7435607910156,61.1480026245117,0.001668357755989,-0.596255540847778,-0.030271396040917,1.57598478836007E-05
1415,31.785020268464,0.415152043104172,0.004269297700375,9.82885646820068,-4.16809143644059E-07,-0.000193271800526,5.66923347378179E-07,-14.6758899688721,61.1472969055176,0.001668968121521,-0.596255123615265,-0.030162114650011,1.55208836076781E-05
1416,31.7950202682405,4.46536350250244,0.006417325697839,9.78932476043701,-3.96907665844992E-07,0.000351891590981,2.83745634988009E-06,-14.6077728271484,61.1465911865234,0.001667747506872,-0.596253573894501,-0.030367018654943,1.52925877046073E-05
1417,31.805020268017,0.395166993141174,0.004061058163643,9.82848453521729,-6.16291004007508E-07,-0.000205320407986,1.87471272283801E-07,-14.5396165847778,61.145881652832,0.001668395940214,-0.596253514289856,-0.030244076624513,1.49393854371738E-05
1418,31.8150202677934,4.47537469863892,0.006521303206682,9.78931331634522,2.23922455688808E-07,0.000339162274031,7.17486614121299E-07,-14.4710140228271,61.1451683044434,0.001667213393375,-0.596253037452698,-0.030435321852565,1.50674850374344E-05
1419,31.8250202675699,0.395178705453873,0.004061008337885,9.82848739624023,-7.43898283417366E-07,-0.000214605111978,-1.14002716600226E-06,-14.4023714065552,61.1444549560547,0.001667900010943,-0.596253633499146,-0.03031237795949,1.46416014104034E-05
1420,31.8350202673464,4.44580459594727,-0.033788647502661,9.78932094573975,6.82351014802407E-07,0.00032735944842,-3.47662307831342E-07,-14.3332862854004,61.1437377929687,0.00166675564833,-0.596253991127014,-0.030503623187542,1.50326359289465E-05
1421,31.8450202671229,0.424771338701248,0.044371008872986,9.82847118377686,-1.02692013115302E-06,-0.000224116563913,-2.39547580349608E-06,-14.2641572952271,61.1430206298828,0.001667480450124,-0.596255242824554,-0.030373848974705,1.44450550578767E-05
1422,31.8550202668994,4.41581535339356,-0.034100744873285,9.78933620452881,-4.41153702013253E-07,0.000316225894494,-3.31515093421331E-06,-14.1945886611938,61.1422996520996,0.00166637415532,-0.596257030963898,-0.030558263882995,1.41932841870585E-05
1423,31.8650202666759,0.445195704698563,0.004581174813211,9.82807540893555,-1.48009655731585E-06,-0.000231730678934,-9.40086647460703E-06,-14.1249752044678,61.1415748596191,0.001667098957114,-0.596262514591217,-0.030428491532803,1.33481216835207E-05
1424,31.8750202664523,4.4054069519043,0.005793596152216,9.78972053527832,-8.81430594290578E-07,0.000305545225274,-8.7486387201352E-06,-14.0549230575562,61.1408500671387,0.001666030846536,-0.596267461776733,-0.030599245801568,1.28457795653958E-05
1425,31.8850202662288,0.434786021709442,0.044474832713604,9.82846355438232,-1.15808347800339E-06,-0.000239428467466,-1.17150348160067E-05,-13.9848260879517,61.1401214599609,0.001666831900366,-0.596274256706238,-0.030462641268969,1.21857910926337E-05
1426,31.8950202660053,4.39624547958374,-0.074305169284344,9.78934001922607,1.01227051629849E-07,0.00029604457086,-1.26502382045146E-05,-13.9142913818359,61.1393890380859,0.001665801974013,-0.596281468868256,-0.030633397400379,1.2247671293153E-05
1427,31.9050202657818,0.444790929555893,0.044578965753317,9.82769584655762,-6.10208360285469E-07,-0.000246137875365,-1.41012660606066E-05,-13.8437128067017,61.1386566162109,0.001666564960033,-0.5962895154953,-0.03049679286778,1.19023634397308E-05
1428,31.9150202655583,4.37541818618774,0.005483420100063,9.79011249542236,-1.20787558444135E-06,0.000287395436317,-1.42824765134719E-05,-13.7726964950562,61.1379203796387,0.001665573101491,-0.596297681331635,-0.030653886497021,1.1214625374123E-05
1429,31.9250202653348,0.456041812896729,-0.075310483574867,9.82806968688965,-4.37857039514711E-07,-0.000252197496593,-1.67755933944136E-05,-13.7016353607178,61.1371765136719,0.001666412339546,-0.596307337284088,-0.030510453507304,1.09688744487357E-05
1430,31.9350202651112,4.36458826065064,0.085376247763634,9.78973770141602,-1.0588128134259E-06,0.000279968720861,-1.48433437061613E-05,-13.6301383972168,61.1364326477051,0.001665458665229,-0.596315741539001,-0.030667547136545,1.0366779861215E-05
1431,31.9450202648877,0.45604395866394,-0.075310476124287,9.82768535614014,-3.42257123975287E-07,-0.000257626583334,-1.5787687516422E-05,-13.5585975646973,61.1356887817383,0.001666297903284,-0.596324801445007,-0.030524114146829,1.01754958450329E-05
1432,31.9550202646642,4.34500885009766,0.0451715067029,9.79012870788574,-5.00629084854154E-07,0.000271915341727,-1.47417858897825E-05,-13.4866209030151,61.1349411010742,0.001665382296778,-0.59633332490921,-0.030688038095832,9.89313593890984E-06
1433,31.9650202644407,0.45562881231308,-0.035312604159117,9.82768821716309,-4.79103960060456E-07,-0.000262521847617,-1.63176482601557E-05,-13.4145994186401,61.1341896057129,0.001666259719059,-0.596342623233795,-0.030530944466591,9.62366175372154E-06
1434,31.9750202642172,4.35542488098145,0.005279116332531,9.78973865509033,4.60168166682706E-07,0.000265276205027,-1.49631432577735E-05,-13.3421430587769,61.133430480957,0.001665344228968,-0.596351206302643,-0.030688038095832,9.89187265076907E-06
1435,31.9850202639936,0.4652119576931,0.004789417143911,9.82768440246582,-7.23690334325511E-07,-0.000266181916231,-1.36626040330157E-05,-13.2696418762207,61.1326751708984,0.001666221534833,-0.596359014511108,-0.030530944466591,9.48143951973179E-06
1436,31.9950202637701,4.31542730331421,0.004863849841058,9.7905216217041,2.30769643394524E-07,0.000258962885709,-1.2036685802741E-05,-13.1967086791992,61.1319122314453,0.001665382296778,-0.596365928649902,-0.030688038095832,9.61734258453362E-06
1437,32.0050202635466,0.475626200437546,-0.035104159265757,9.8269157409668,3.88711413279452E-07,-0.000269469572231,-1.14424919956946E-05,-13.1237287521362,61.1311492919922,0.001666259719059,-0.596372544765472,-0.030524114146829,9.84351390798111E-06
1438,32.0150202633231,4.30542373657227,0.004760705400258,9.79053020477295,6.92263029122842E-07,0.000252797646681,-7.92299942986574E-06,-13.0503187179565,61.1303825378418,0.001665420481004,-0.596377015113831,-0.030667547136545,1.02426129160449E-05
1439,32.0250202630996,0.474791169166565,0.044891681522131,9.82691478729248,3.60061278570356E-07,-0.000273548561381,-7.49726905269199E-06,-12.976861000061,61.1296195983887,0.001666297903284,-0.596381366252899,-0.030510453507304,1.04511982499389E-05
1440,32.0350202628761,4.30583810806274,-0.035236418247223,9.79053401947022,1.28417639189138E-06,0.000247372314334,-5.14455359734711E-06,-12.9029741287231,61.1288452148438,0.001665458665229,-0.596384286880493,-0.030653886497021,1.11885574369808E-05
1441,32.0450202626525,0.475205570459366,0.004894190933555,9.82767677307129,1.74072658865043E-06,-0.000275441328995,-4.16064085584367E-06,-12.8290405273438,61.1280746459961,0.001666412339546,-0.596386671066284,-0.03049679286778,1.21871844385169E-05
1442,32.055020262429,4.29541873931885,0.004657862707973,9.78977680206299,1.30025898670283E-06,0.000242513080593,-1.5247708233801E-06,-12.754677772522,61.1273002624512,0.001665573101491,-0.596387505531311,-0.030633397400379,1.29326735986979E-05
1443,32.0650202622055,0.465202569961548,0.004790216684341,9.82768440246582,-3.29261183651397E-07,-0.000278352265013,-2.23991264647339E-06,-12.6802682876587,61.126522064209,0.001666526775807,-0.596388876438141,-0.030476301908493,1.27446728583891E-05
1444,32.075020261982,4.28541707992554,0.004553990438581,9.79016304016113,1.84338875897083E-06,0.000237757791183,9.32090813421382E-07,-12.6054315567017,61.1257400512695,0.001665725721978,-0.596388339996338,-0.030619736760855,1.38006334964302E-05
1445,32.0850202617585,0.475615680217743,-0.035103213042021,9.8269157409668,1.51572669437883E-06,-0.00028012986877,1.87104490123602E-06,-12.5305480957031,61.1249580383301,0.001666641212069,-0.596387207508087,-0.030462641268969,1.46684769788408E-05
1446,32.095020261535,4.25499773025513,0.044239424169064,9.79056358337402,5.72168410428731E-08,0.0002331831638,4.85049713461194E-06,-12.4552392959595,61.1241722106934,0.001665840158239,-0.596384406089783,-0.030592415481806,1.46997954288963E-05
1447,32.1050202613114,0.485609471797943,-0.034999046474695,9.82729244232178,1.18181287689367E-06,-0.000281957880361,3.81346239919367E-06,-12.3798809051514,61.1233863830566,0.001666793832555,-0.596382260322571,-0.030428491532803,1.5375768271042E-05
1448,32.1150202610879,4.26540756225586,0.00434547662735,9.79055976867676,1.47588082199945E-06,0.000229349723668,6.99469001119724E-06,-12.3040990829468,61.1225967407227,0.001666030846536,-0.596378266811371,-0.030558263882995,1.62192372954451E-05
1449,32.1250202608644,0.484771907329559,0.044996771961451,9.82691192626953,7.32481737486523E-07,-0.000283713947283,6.65375546304858E-06,-12.2282676696777,61.1218070983887,0.001666984520853,-0.596374452114105,-0.030401170253754,1.66369409271283E-05
1450,32.1350202606409,4.23581981658936,-0.035965092480183,9.79057788848877,8.87668420546106E-07,0.000225667317864,8.50749802339124E-06,-12.1520137786865,61.1210098266602,0.001666221534833,-0.596369624137878,-0.030524114146829,1.71429437614279E-05
1451,32.1450202604174,0.505181312561035,0.005207159556448,9.82689952850342,4.9016966841009E-07,-0.000285291433102,8.40706525195856E-06,-12.0757102966309,61.1202125549316,0.00166717520915,-0.596364796161652,-0.030367018654943,1.7421238226234E-05
1452,32.1550202601939,4.20540046691895,0.003730697324499,9.79021644592285,-5.63311368750874E-05,0.000222224814934,-0.000321061146678,-11.9989852905273,61.1194114685059,0.00166637415532,-0.596548914909363,-0.03049679286778,0
1453,32.1650202599703,0.50600665807724,-0.07479340583086,9.82766056060791,-4.44908982899506E-05,-0.000286886584945,-0.000342202169122,-11.9222116470337,61.1186065673828,0.001667366013862,-0.596745014190674,-0.030319208279252,-3.05175763060106E-05
1454,32.1750202597468,4.21455717086792,0.0838503241539,9.79021644592285,-3.95680181100033E-05,0.000219194393139,-0.00037729064934,-11.8450164794922,61.1178016662598,0.001666603027843,-0.59696102142334,-0.030442152172327,-6.10351526120212E-05
1455,32.1850202595233,0.496000319719315,-0.074904263019562,9.82690620422363,-3.08838352793828E-05,-0.000287004455458,-0.000387718115235,-11.7677736282349,61.1169891357422,0.001667556702159,-0.597183227539063,-0.030278226360679,-9.15527198230848E-05
1456,32.1950202592998,4.19538640975952,0.003674485720694,9.79289817810059,-2.74844605883118E-05,0.000215223641135,-0.000409779982874,-11.6901092529297,61.1161766052246,0.001667022705078,-0.597417831420898,-0.030401170253754,-9.15527198230848E-05
1457,32.2050202590763,0.515156805515289,0.005298765841872,9.82384586334229,-1.95738139154855E-05,-0.000287332513835,-0.000405439874157,-11.6123962402344,61.1153602600098,0.001667900010943,-0.597650349140167,-0.030237246304751,-0.00012207027612
1458,32.2150202588527,4.16496324539185,0.043388448655605,9.79139041900635,-1.74643046193523E-05,0.000213305625948,-0.000415357470047,-11.5342664718628,61.1145439147949,0.001667137141339,-0.597888290882111,-0.030367018654943,-0.000122070305224
1459,32.2250202586292,0.515570998191834,-0.034694865345955,9.82651424407959,-1.03507236417499E-05,-0.000287996110274,-0.000406603736337,-11.4560852050781,61.1137237548828,0.00166805263143,-0.598121225833893,-0.030209925025702,-0.000122070305224
1460,32.2350202584057,4.16537141799927,0.003424615366384,9.79139423370361,-1.06461020550341E-05,0.000209822523175,-0.000410518987337,-11.3774871826172,61.1128997802734,0.001667327829637,-0.598356366157532,-0.03031237795949,-0.000122070268844
1461,32.2450202581822,0.525142073631287,0.005411534104496,9.82612991333008,-4.91878108732635E-06,-0.000288079027086,-0.000395483832108,-11.2988386154175,61.1120719909668,0.001668243319727,-0.598583102226257,-0.030148454010487,-0.00012207027612
1462,32.2550202579587,4.15536546707153,0.003352887928486,9.79178524017334,-2.30334785555897E-06,0.000207478340599,-0.000392235728214,-11.2197751998901,61.1112480163574,0.001667556702159,-0.598807871341705,-0.030271396040917,-0.0001220703125
1463,32.2650202577352,0.51513671875,0.005310984328389,9.82613563537598,-2.47174114065274E-07,-0.000288405863103,-0.000376479816623,-11.1406602859497,61.1104202270508,0.001668510376476,-0.599023640155792,-0.030114302411676,-0.000122070290672
1464,32.2750202575116,4.12577676773071,-0.036927584558725,9.79141998291016,5.01060071655957E-07,0.000204493771889,-0.000372596085072,-11.0611324310303,61.1095848083496,0.001667823758908,-0.599237143993378,-0.030223585665226,-0.000122070327052
1465,32.2850202572881,0.534707725048065,0.045521732419729,9.82612705230713,3.17527133120166E-06,-0.000288294395432,-0.000353497016476,-10.9815521240234,61.1087493896484,0.001668777433224,-0.599439382553101,-0.030059661716223,-0.00012207027612
1466,32.2950202570646,4.1353497505188,0.003203664440662,9.79103946685791,3.78078789253777E-06,0.000202736613574,-0.000345379899954,-10.9015598297119,61.1079139709473,0.00166805263143,-0.599637448787689,-0.03017577342689,-0.00012207027612
1467,32.3050202568411,0.525538682937622,-0.034574996680021,9.82650947570801,5.64081938136951E-06,-0.00028795216349,-0.000327995454427,-10.821515083313,61.1070747375488,0.001669006305747,-0.599825382232666,-0.030018679797649,-0.000122070290672
1468,32.3150202566176,4.10534334182739,0.002916236175224,9.79373073577881,4.21295271735289E-06,0.000201247035875,-0.000319604150718,-10.7410593032837,61.1062278747559,0.001668548560701,-0.600008368492126,-0.030121132731438,-0.000122070290672
1469,32.3250202563941,0.535525143146515,-0.03446701169014,9.82154750823975,7.03811565472279E-06,-0.000288099778118,-0.000300578365568,-10.660551071167,61.1053848266602,0.001669273362495,-0.600180923938751,-0.029957208782435,-0.0001220703125
1470,32.3350202561705,4.10449934005737,0.082936100661755,9.79640197753906,6.48972991257324E-06,0.000198615511181,-0.000291030737571,-10.5796337127686,61.1045379638672,0.00166885368526,-0.600347399711609,-0.030080150812864,-0.00012207027612
1471,32.345020255947,0.535518944263458,-0.03446401283145,9.82269287109375,6.66255709802499E-06,-0.000287981587462,-0.000274655903922,-10.4986629486084,61.1036911010742,0.00166973110754,-0.60050493478775,-0.029923057183623,-0.0001220703125
1472,32.3550202557235,4.07574558258057,-0.037349607795477,9.79222393035889,5.35368735654629E-06,0.000196896493435,-0.000266470422503,-10.4172849655151,61.1028366088867,0.001669044489972,-0.600657463073731,-0.030018679797649,-0.000122070305224
1473,32.3650202555,0.544672071933746,0.045644406229258,9.82612323760986,7.95549931353889E-06,-0.000287463975837,-0.000250116572715,-10.3358526229858,61.1019821166992,0.001669998164289,-0.600800752639771,-0.029861586168408,-9.1552734375E-05
1474,32.3750202552765,4.06910228729248,-0.357349961996078,9.79108715057373,-0.000453085493064,0.000194415726583,-0.002913769334555,-10.2540149688721,61.1010932922363,0.001669273362495,-0.602470219135284,-0.029964039102197,-0.000366210850189
1475,32.385020255053,0.547193348407745,-0.194411545991898,9.82726097106934,-0.000626838242169,-0.000286990281893,-0.004603478126228,-10.1721229553223,61.1001777648926,0.001670303288847,-0.605107843875885,-0.029800113290548,-0.000732421758585
1476,32.3950202548294,4.06488513946533,0.042897161096335,9.79071426391602,-0.000470614439109,0.00019283000438,-0.004598223604262,-10.089825630188,61.0992660522461,0.001669616671279,-0.607742309570313,-0.029923057183623,-0.000976562441792
1477,32.4050202546059,0.535073637962341,0.005446156021208,9.82612609863281,-0.000312916585244,-0.000287161732558,-0.004410826135427,-10.0074739456177,61.0983543395996,0.001670570345595,-0.610269665718079,-0.029765963554382,-0.001159667852335
1478,32.4150202543824,4.05615568161011,-0.076903134584427,9.79224681854248,-0.0002333411976,0.000190919643501,-0.004387276247144,-9.92471790313721,61.0974311828613,0.001669959980063,-0.612783372402191,-0.029861586168408,-0.001312255626544
1479,32.4250202541589,0.545061588287354,0.005562233738601,9.82536125183106,-0.000132702480187,-0.000286162394332,-0.004166028928012,-9.8419075012207,61.0965080261231,0.00167091365438,-0.615170359611511,-0.02969766035676,-0.00137329089921
1480,32.4350202539354,4.03572130203247,-0.036807574331761,9.79187870025635,-9.3627386377193E-05,0.000189162528841,-0.004085809923708,-9.75869464874268,61.095573425293,0.001670265104622,-0.617511212825775,-0.029800113290548,-0.001434325939044
1481,32.4450202537118,0.554618060588837,0.045700468122959,9.82650184631348,-3.11890180455521E-05,-0.000285794842057,-0.00386121077463,-9.67542743682861,61.0946464538574,0.001671295147389,-0.619723498821258,-0.029636189341545,-0.00143432605546
1482,32.4550202534883,4.00571584701538,-0.036825615912676,9.78961086273193,-1.38532677738112E-05,0.000188162142877,-0.003767834510654,-9.59175872802734,61.0937080383301,0.00167049409356,-0.621882498264313,-0.029745472595096,-0.00143432605546
1483,32.4650202532648,0.575476050376892,-0.034036695957184,9.82801342010498,2.16095540963579E-05,-0.000284916051896,-0.003572459798306,-9.50803375244141,61.0927734375,0.001671524019912,-0.623929381370544,-0.029581546783447,-0.001434325939044
1484,32.4750202530413,3.98527526855469,0.003239829326049,9.79153347015381,2.82410146610346E-05,0.000186929115443,-0.003454948076978,-9.42391014099121,61.0918235778809,0.00167091365438,-0.62590903043747,-0.02969766035676,-0.001403808477335
1485,32.4850202528178,0.585030615329742,0.006119327154011,9.82457733154297,5.36346560693346E-05,-0.000283539993688,-0.003260762663558,-9.33973026275635,61.0908813476563,0.00167179107666,-0.627777457237244,-0.029540566727519,-0.00137329089921
1486,32.4950202525943,3.97570633888245,-0.036602817475796,9.7953577041626,5.25439936609473E-05,0.000184890683158,-0.003132884157822,-9.25515174865723,61.0899314880371,0.001671409583651,-0.629572153091431,-0.029636189341545,-0.001342773321085
1487,32.5050202523707,0.575019121170044,0.006054763682187,9.82229328155518,7.52919222577475E-05,-0.000283428264083,-0.002918172394857,-9.17051696777344,61.0889778137207,0.001672287005931,-0.631243824958801,-0.029479095712304,-0.001312255626544
1488,32.5150202521472,3.97525501251221,0.003631856292486,9.79269123077393,7.02898832969367E-05,0.000183685915545,-0.002789237070829,-9.08548545837402,61.088020324707,0.001671638456173,-0.632842302322388,-0.02957471832633,-0.001281738164835
1489,32.5250202519237,0.565453469753265,-0.034007199108601,9.82573413848877,8.44895475893281E-05,-0.000282010732917,-0.002591206459329,-9.00039672851563,61.0870628356934,0.00167259213049,-0.634326875209808,-0.029417622834444,-0.001220702892169
1490,32.5350202517002,3.9648015499115,0.043734982609749,9.79193687438965,7.76831002440304E-05,0.000181929150131,-0.002468439517543,-8.91491317749023,61.0861015319824,0.001671943580732,-0.635741293430328,-0.029520075768232,-0.00119018543046
1491,32.5450202514767,0.575888395309448,-0.073851175606251,9.82534599304199,8.7218257249333E-05,-0.000281843822449,-0.002288255607709,-8.82937145233154,61.0851364135742,0.001672859187238,-0.637052357196808,-0.029356151819229,-0.00112915027421
1492,32.5550202512532,3.95479035377502,0.043821014463902,9.79309272766113,7.91809434304014E-05,0.000180405797437,-0.002171803964302,-8.74343585968018,61.0841674804688,0.001672287005931,-0.638296544551849,-0.029458604753018,-0.00106811511796
1493,32.5650202510296,0.574988901615143,0.006183421704918,9.82458400726318,8.59763167682104E-05,-0.000280759151792,-0.002009551040828,-8.65744304656982,61.0831985473633,0.001673202496022,-0.639448225498199,-0.029301509261131,-0.001037597539835
1494,32.5750202508061,3.92612385749817,-0.076336689293385,9.79310894012451,7.61335541028529E-05,0.000179100985406,-0.001902376650833,-8.57105731964111,61.0822219848633,0.001672630314715,-0.640538096427918,-0.029410792514682,-0.000976562325377
1495,32.5850202505826,0.598121643066406,-0.273564606904984,9.82456684112549,-0.00037430159864,-0.000279530737316,-0.004419496748596,-8.4846134185791,61.0812110900879,0.001673545804806,-0.64307028055191,-0.029253698885441,-0.001190185546875
1496,32.5950202503591,3.91612076759338,-0.076157845556736,9.79273509979248,-0.00036615022691,0.000177822439582,-0.004878742154688,-8.39777851104736,61.0801887512207,0.001672935439274,-0.645865559577942,-0.029349321499467,-0.001403808477335
1497,32.6050202501356,0.590421080589294,-0.033646021038294,9.82457637786865,-0.000293012562906,-0.000278968946077,-0.005002771504223,-8.31088542938232,61.0791702270508,0.001673812861554,-0.648731887340546,-0.029192226007581,-0.001586913829669
1498,32.615020249912,3.90066504478455,-0.035985670983791,9.79427337646484,-0.000272889097687,0.000176031186129,-0.00529613904655,-8.22360229492188,61.0781326293945,0.001673316932283,-0.65176647901535,-0.029287848621607,-0.00173950183671
1499,32.6250202496885,0.600869536399841,-0.073509097099304,9.82495403289795,-0.000196675478946,-0.000277904269751,-0.005278402008116,-8.13626003265381,61.0770950317383,0.001674346858636,-0.654790639877319,-0.029123924672604,-0.001831054454669
1500,32.635020249465,3.885657787323,-0.035777896642685,9.79161357879639,-0.000181088922545,0.000175161781954,-0.005411826074123,-8.04852962493897,61.0760498046875,0.001673736493103,-0.65789121389389,-0.029226377606392,-0.001953124883585
1501,32.6450202492415,0.599944651126862,0.006518011912704,9.82381153106689,-0.000112165762403,-0.000277514278423,-0.005293382331729,-7.96073961257935,61.0749969482422,0.001674537663348,-0.66092437505722,-0.029069283977151,-0.002014159923419
1502,32.655020249018,3.87658047676086,-0.115495339035988,9.7950553894043,-0.000107678803033,0.00017309008399,-0.005376139190048,-7.87256193161011,61.0739326477051,0.001674041734077,-0.664004564285278,-0.029164906591177,-0.002075194614008
1503,32.6650202487945,0.604467570781708,0.046625833958387,9.82419204711914,-4.6686200221302E-05,-0.000275896250969,-0.005180857609957,-7.78432559967041,61.0728759765625,0.001674995408393,-0.666972994804382,-0.029007811099291,-0.002075195079669
1504,32.6750202485709,3.86658310890198,-0.115218117833138,9.79353809356689,-3.7492503906833E-05,0.000172782558366,-0.005132580175996,-7.69570255279541,61.0718002319336,0.001674499479122,-0.669913709163666,-0.029110264033079,-0.002105712424964
1505,32.6850202483474,0.603983223438263,0.086678303778172,9.8230504989624,4.32462456956273E-06,-0.000275226630038,-0.00494641577825,-7.60701942443848,61.0707321166992,0.001675338717178,-0.672748029232025,-0.028953170403838,-0.002105712424964
1506,32.6950202481239,3.84658741950989,-0.115076027810574,9.79355049133301,9.42806309467414E-06,0.000171365070855,-0.004839283879846,-7.51795196533203,61.0696487426758,0.001674728351645,-0.675520539283752,-0.029062453657389,-0.002105712424964
1507,32.7050202479004,0.614914000034332,0.006863868795335,9.82495021820068,5.03318187838886E-05,-0.000273961224593,-0.004581946413964,-7.42882442474365,61.0685615539551,0.001675643841736,-0.678145945072174,-0.028905358165503,-0.002075195079669
1508,32.7150202476769,3.83563852310181,-0.034843441098929,9.79508876800537,5.03387964272406E-05,0.000169893886778,-0.004441680852324,-7.33931303024292,61.0674705505371,0.001675262465142,-0.680690765380859,-0.029000980779529,-0.002044677268714
1509,32.7250202474534,0.620376825332642,-0.033005211502314,9.81998729705811,8.23567243060097E-05,-0.000272745237453,-0.004181656986475,-7.2497410774231,61.0663757324219,0.001675910898484,-0.683086514472961,-0.028843887150288,-0.001983642345294
1510,32.7350202472298,3.8146767616272,0.045241519808769,9.7981595993042,7.72809144109487E-05,0.000169149556314,-0.004025666043162,-7.15978765487671,61.0652770996094,0.0016755675897,-0.685393035411835,-0.028939509764314,-0.001953124883585
1511,32.7450202470063,0.620367646217346,-0.032941527664662,9.81998825073242,0.000100041703263,-0.000271896074992,-0.003772638272494,-7.06977224349976,61.0641784667969,0.001676254207268,-0.687554597854614,-0.028775585815311,-0.001892089494504
1512,32.7550202467828,3.8061056137085,-0.07456785440445,9.79587459564209,9.17151119210757E-05,0.000167589867488,-0.003611848223954,-6.97937726974487,61.0630645751953,0.001675720210187,-0.689624309539795,-0.028871208429337,-0.001831054454669
1513,32.7650202465593,0.634395241737366,0.047297421842814,9.82494354248047,0.000109571723442,-0.000271076190984,-0.003369159298018,-6.88891935348511,61.0619583129883,0.001676711952314,-0.691554367542267,-0.028714112937451,-0.001770019182004
1514,32.7750202463358,3.78110027313232,-0.074599392712116,9.79283905029297,9.99870389932767E-05,0.000165914621903,-0.003209066810086,-6.79808378219605,61.0608367919922,0.001676177955233,-0.693393111228943,-0.028809735551477,-0.001708984142169
1515,32.7850202461123,0.642783939838409,-0.232579737901688,9.82454872131348,-0.000238198947045,-0.000269009906333,-0.005026978906244,-6.70718479156494,61.0596961975098,0.001677131629549,-0.696273624897003,-0.028659472241998,-0.001831054454669
1516,32.7950202458887,3.76207804679871,-0.154456481337547,9.79323291778564,-0.000526984746102,0.000164584009326,-0.007006063591689,-6.61591053009033,61.0585289001465,0.001676597516052,-0.700287759304047,-0.028748264536262,-0.002136230235919
1517,32.8050202456652,0.645837783813477,-0.072526842355728,9.82302665710449,-0.000333488365868,-0.00026904619881,-0.00666587986052,-6.52457189559937,61.0573577880859,0.001677398686297,-0.70410680770874,-0.028598001226783,-0.002319335704669
1518,32.8150202454417,3.75610136985779,-0.074086278676987,9.7940034866333,-0.000231235797401,0.000163466931554,-0.006522460374981,-6.43285799026489,61.0561752319336,0.001676788320765,-0.707844078540802,-0.028693623840809,-0.002471923362464
1519,32.8250202452182,0.649349451065064,0.04757072031498,9.82493877410889,-0.00011172505765,-0.000267693423666,-0.006185321137309,-6.34108018875122,61.0549926757813,0.001677703810856,-0.711387872695923,-0.02855701930821,-0.002532958751544
1520,32.8350202449947,3.74110078811645,-0.073832310736179,9.79363250732422,-5.96667814534158E-05,0.000162471245858,-0.005990583449602,-6.24892854690552,61.0538024902344,0.001677169813775,-0.714820206165314,-0.028632150962949,-0.002563476329669
1521,32.8450202447711,0.654833436012268,0.007706316187978,9.82340908050537,1.4509759239445E-05,-0.000265847775154,-0.005640127696097,-6.15671253204346,61.0526123046875,0.00167800905183,-0.718051850795746,-0.028488717973232,-0.002563476329669
1522,32.8550202445476,3.72509574890137,0.006392987444997,9.79479312896729,2.78729166893754E-05,0.000160817755386,-0.005474597215652,-6.06412410736084,61.0514144897461,0.001677513122559,-0.721188485622406,-0.028584340587258,-0.002532958984375
1523,32.8650202443241,0.65532773733139,-0.032205905765295,9.8237886428833,7.91971397120506E-05,-0.000264744943706,-0.005126097239554,-5.97147035598755,61.0502128601074,0.001678428612649,-0.724125742912293,-0.028427245095372,-0.002471923129633
1524,32.8750202441006,3.71609973907471,-0.073337346315384,9.79365158081055,8.06289463071153E-05,0.000159503746545,-0.004938287194818,-5.87844610214233,61.0490036010742,0.001677894499153,-0.726954877376556,-0.028522867709398,-0.002441405551508
1525,32.8850202438771,0.659810483455658,0.00793250836432,9.82379150390625,0.000109177730337,-0.000263303838437,-0.004638890735805,-5.78535556793213,61.0477905273438,0.001678771921434,-0.729612827301025,-0.028365774080157,-0.002380370860919
1526,32.8950202436536,3.70007467269897,0.006822024472058,9.79366779327393,0.000104680242657,0.000158532391652,-0.004433511756361,-5.69189643859863,61.0465774536133,0.001678199740127,-0.732152998447418,-0.028461396694183,-0.002319335704669
1527,32.90502024343,0.665311574935913,-0.03191801533103,9.8237886428833,0.000133689594804,-0.000262549117906,-0.00410612905398,-5.59837102890015,61.0453567504883,0.001679038978182,-0.734505772590637,-0.028304303064942,-0.002227782970294
1528,32.9150202432065,3.68609261512756,-0.073043681681156,9.79443645477295,0.000130524465931,0.00015753916523,-0.003863422200084,-5.50447750091553,61.0441246032715,0.001678504864685,-0.73671942949295,-0.028393095359206,-0.002166747814044
1529,32.925020242983,0.66875571012497,0.088211692869663,9.82379150390625,0.000147775004734,-0.000260741304373,-0.003564273705706,-5.41051769256592,61.0429000854492,0.001679382286966,-0.738761603832245,-0.028242830187082,-0.002075194614008
1530,32.9350202427595,3.6660885810852,-0.073016740381718,9.79407024383545,0.000139636773383,0.000156216861797,-0.003339965827763,-5.31619119644165,61.0416641235352,0.001678848173469,-0.740675210952759,-0.028331622481346,-0.001983642810956
1531,32.945020242536,0.679775714874268,0.008421936072409,9.82454586029053,0.000148895021994,-0.000259988592006,-0.003073411528021,-5.22179794311523,61.0404281616211,0.001679801847786,-0.742435991764069,-0.028181359171867,-0.001892089610919
1532,32.9550202423125,3.66056346893311,-0.032841458916664,9.79369735717773,0.000139842333738,0.000155214846018,-0.002867333823815,-5.12703895568848,61.0391845703125,0.00167930603493,-0.744078874588013,-0.028270151466131,-0.001831054454669
1533,32.9650202420889,0.669768035411835,0.008355145342648,9.82264423370361,0.000144495803397,-0.000258172047324,-0.002631469396874,-5.03221368789673,61.0379371643066,0.00168010708876,-0.745586693286896,-0.028140377253294,-0.001739501603879
1534,32.9750202418654,3.64951372146606,0.047221660614014,9.7952356338501,0.000261601438979,0.000153843677253,-0.001704649534076,-4.93702363967896,61.0366935729981,0.001679611159489,-0.746563196182251,-0.028208680450916,-0.001586913829669
1535,32.9850202416419,0.675278902053833,-0.031508330255747,9.82340335845947,0.000243894814048,-0.00025740818819,-0.001428834628314,-4.84176635742188,61.0354461669922,0.001680488581769,-0.747381865978241,-0.028078906238079,-0.001464843633585
1536,32.9950202414184,3.63950371742249,0.047232687473297,9.7948637008667,0.000221895505092,0.000152513021021,-0.001166745088995,-4.74614572525024,61.0341987609863,0.001680030836724,-0.748050630092621,-0.028154037892819,-0.001312255859375
1537,33.0050202411949,0.680266559123993,-0.031386900693178,9.82149505615234,0.000204157026019,-0.000256312690908,-0.000951323250774,-4.65045785903931,61.0329475402832,0.001680755522102,-0.748595714569092,-0.028010604903102,-0.001220702892169
1538,33.0150202409713,3.61897277832031,0.087066039443016,9.79792785644531,0.000185517594218,0.000151494794409,-0.000748168909922,-4.55440855026245,61.0316963195801,0.001680450397544,-0.749024212360382,-0.028092566877604,-0.001098632696085
1539,33.0250202407478,0.685778975486755,-0.071272425353527,9.82111072540283,0.000167430931469,-0.000255235529039,-0.000589360657614,-4.45829105377197,61.0304412841797,0.001681289635599,-0.749362289905548,-0.027949132025242,-0.001007080078125
1540,33.0350202405243,3.60448622703552,0.046941574662924,9.79412460327148,0.000152524953592,0.000150462772581,-0.000433868292021,-4.36181306838989,61.0291862487793,0.001680717454292,-0.749610543251038,-0.028044754639268,-0.00091552734375
1541,33.0450202403008,0.700245559215546,-0.031043095514178,9.82377338409424,0.000138112052809,-0.000254091894021,-0.000318060338032,-4.26526641845703,61.0279273986816,0.001681556692347,-0.749792754650116,-0.027887661010027,-0.000823974609375
1542,33.0550202400773,3.58250117301941,0.006695285439491,9.79490280151367,0.000125463295262,0.000149082115968,-0.000201477087103,-4.16836166381836,61.0266647338867,0.001681060763076,-0.749907970428467,-0.027983283624053,-0.000762939453125
1543,33.0650202398538,0.702209770679474,0.009009366855025,9.82301139831543,0.000110891865916,-0.000252259138506,-0.000118994117656,-4.07138729095459,61.0253982543945,0.001681900001131,-0.749976277351379,-0.02781935967505,-0.000701904471498
1544,33.0750202396302,3.57247424125671,0.006579091772437,9.79491424560547,0.000102060104837,0.000147728816955,-3.24890206684358E-05,-3.97405600547791,61.0241279602051,0.00168140407186,-0.749976277351379,-0.02781935967505,-0.000701904471498
1545,33.0850202394067,0.701675653457642,0.049026932567358,9.8230152130127,9.0599583927542E-05,-0.000251452438533,2.31004160013981E-05,-3.87665486335754,61.0228652954102,0.001682243309915,-0.749981701374054,-0.02775788679719,-0.000579833926167
1546,33.0950202391832,3.56601142883301,-0.073491014540196,9.79491996765137,8.32787554827519E-05,0.000146724734805,8.25382303446531E-05,-3.77889800071716,61.0215911865234,0.001681747380644,-0.749981701374054,-0.02775788679719,-0.000579833926167
1547,33.1050202389597,0.709688067436218,0.009142798371613,9.82301139831543,7.46631994843483E-05,-0.000249553355388,0.000120242635603,-3.68107056617737,61.0203170776367,0.001682586618699,-0.749865591526032,-0.027696415781975,-0.000488281220896
1548,33.1150202387362,3.54547929763794,-0.033747754991055,9.79531764984131,6.78129363222979E-05,0.000145401252666,0.000159368952154,-3.58288908004761,61.0190315246582,0.001682128873654,-0.749865591526032,-0.027696415781975,-0.000488281220896
1549,33.1250202385127,0.711657345294952,0.049180164933205,9.82262802124023,6.07362926530186E-05,-0.000248707801802,0.000179606708116,-3.48463678359985,61.0177536010742,0.001682968111709,-0.749671518802643,-0.027655433863402,-0.000427246064646
1550,33.1350202382891,3.52996277809143,0.006049073766917,9.79532337188721,5.51892044313718E-05,0.000143700075569,0.000202758150408,-3.38603210449219,61.0164680480957,0.001682510366663,-0.749555349349976,-0.027730567380786,-0.000396728544729
1551,33.1450202380656,0.720192730426788,-0.0307073649019,9.82262516021729,5.00755013490561E-05,-0.000247168238275,0.000212631231989,-3.28735566139221,61.0151786804199,0.001683349604718,-0.749433636665344,-0.027593962848187,-0.000366210966604
1552,33.1550202378421,3.51692891120911,0.045876991003752,9.79495334625244,4.65033408545423E-05,0.000143092023791,0.000231031139265,-3.1883282661438,61.0138893127441,0.001682853675447,-0.749301433563232,-0.027662264183164,-0.000335693330271
1553,33.1650202376186,0.723833084106445,0.649467587471008,9.82223796844482,0.001189996604808,-0.000246739771683,0.006910474970937,-3.08922791481018,61.0126647949219,0.001683616545051,-0.745341658592224,-0.027532491832972,0.000339385529514
1554,33.1750202373951,3.49735951423645,0.20533075928688,9.79648685455322,0.001130162505433,0.000141328971949,0.008247784338892,-2.9897780418396,61.0114593505859,0.001683196984231,-0.740616202354431,-0.027600793167949,0.000984648009762
1555,33.1850202371716,0.731122672557831,0.089595764875412,9.82223796844482,0.00098223995883,-0.000245540490141,0.009077695198357,-2.89025568962097,61.0102577209473,0.001684036222287,-0.735414922237396,-0.027471018955112,0.001544930390082
1556,33.195020236948,3.4809091091156,0.124632738530636,9.79344463348389,0.000893481716048,0.000139595838846,0.009944804012775,-2.79038548469543,61.0090675354004,0.001683387672529,-0.729717135429382,-0.027552980929613,0.002054122043774
1557,33.2050202367245,0.74113130569458,0.089734204113484,9.82604789733887,0.000738185772207,-0.000244710798142,0.010340447537601,-2.69044160842895,61.0078849792481,0.001684379531071,-0.723792195320129,-0.027409547939897,0.00247422978282
1558,33.215020236501,3.46542501449585,0.163840055465698,9.7934513092041,0.000666764739435,0.000137977956911,0.010897735133767,-2.59015130996704,61.0067138671875,0.0016838836018,-0.717548310756683,-0.027491509914398,0.002853266661987
1559,33.2250202362775,0.741138577461243,0.089687377214432,9.82261371612549,0.000499579240568,-0.000242935901042,0.010857803747058,-2.48978734016418,61.0055465698242,0.001684684772044,-0.711327195167542,-0.027348075062037,0.003136526793242
1560,33.235020236054,3.45492172241211,0.003029641229659,9.79499340057373,0.00044449212146,0.000136239017593,0.011110435239971,-2.38907814025879,61.0043792724609,0.001684150658548,-0.704961657524109,-0.027436869218946,0.003388158977032
