frame,timestamp,x,y,z,qw,qx,qy,qz,v_x (m/s),v_y (m/s),v_z (m/s),w_x (rad/s),w_y (rad/s),w_z (rad/s),acc x (m/s^2),acc y (m/s^2),acc z (m/s^2)
927,0.0,0.0,0.0,0.0,1.0,0.0,0.0,0.0,0.0,0.0,0.0,-0.002153,0.020744,0.075806,-0.013337,0.103464,0.093086
928,10000000.0,0.0,0.0,0.0,1.0,0.0,0.0,0.0,0.0,0.0,0.0,-0.002153,0.020744,0.075806,-0.013337,0.103464,0.093086
929,20000000.0,0.0,0.0,0.0,1.0,0.0,0.0,0.0,0.0,0.0,0.0,-0.002153,0.020744,0.075806,-0.013337,0.103464,0.093086
930,30000000.0,0.0,0.0,0.0,1.0,0.0,0.0,0.0,0.0,0.0,0.0,-0.002153,0.020744,0.075806,-0.013337,0.103464,0.093086
931,40000000.0,0.0,0.0,0.0,1.0,0.0,0.0,0.0,0.0,0.0,0.0,-0.002153,0.020744,0.075806,-0.013337,0.103464,0.093086
932,50000000.0,0.0,0.0,0.0,1.0,0.0,0.0,0.0,0.0,0.0,0.0,-0.002153,0.020744,0.075806,-0.013337,0.103464,0.093086
933,60000000.0,0.0,0.0,0.0,1.0,0.0,0.0,0.0,0.0,0.0,0.0,-0.002153,0.020744,0.075806,-0.013337,0.103464,0.093086
934,70000000.0,0.0,0.0,0.0,1.0,0.0,0.0,0.0,0.0,0.0,0.0,-0.002153,0.020744,0.075806,-0.013337,0.103464,0.093086
935,80000000.0,0.0,0.0,0.0,1.0,0.0,0.0,0.0,0.0,0.0,0.0,-0.002153,0.020744,0.075806,-0.013337,0.103464,0.093086
936,90000000.0,0.0,0.0,0.0,1.0,0.0,0.0,0.0,0.0,0.0,0.0,-0.002153,0.020744,0.075806,-0.013337,0.103464,0.093086
937,100000000.0,0.0,0.0,0.0,1.0,0.0,0.0,0.0,0.0,0.0,0.0,-0.002153,0.020744,0.075806,-0.013337,0.103464,0.093086
938,110000000.0,0.0,0.0,0.0,1.0,0.0,0.0,0.0,0.0,0.0,0.0,-0.002153,0.020744,0.075806,-0.013337,0.103464,0.093086
939,120000000.0,0.0,0.0,0.0,1.0,0.0,0.0,0.0,0.0,0.0,0.0,-0.002153,0.020744,0.075806,-0.013337,0.103464,0.093086
940,130000000.0,0.0,0.0,0.0,1.0,0.0,0.0,0.0,0.0,0.0,0.0,-0.002153,0.020744,0.075806,-0.013337,0.103464,0.093086
941,140000000.0,0.0,0.0,0.0,1.0,0.0,0.0,0.0,0.0,0.0,0.0,-0.002153,0.020744,0.075806,-0.013337,0.103464,0.093086
942,150000000.0,0.0,0.0,0.0,1.0,0.0,0.0,0.0,0.0,0.0,0.0,-0.002153,0.020744,0.075806,-0.013337,0.103464,0.093086
943,160000000.0,0.0,0.0,0.0,1.0,0.0,0.0,0.0,0.0,0.0,0.0,-0.002153,0.020744,0.075806,-0.013337,0.103464,0.093086
944,170000000.0,0.0,0.0,0.0,1.0,0.0,0.0,0.0,0.0,0.0,0.0,-0.002153,0.020744,0.075806,-0.013337,0.103464,0.093086
945,180000000.0,0.0,0.0,0.0,1.0,0.0,0.0,0.0,0.0,0.0,0.0,-0.002153,0.020744,0.075806,-0.013337,0.103464,0.093086
946,190000000.0,0.0,0.0,0.0,1.0,0.0,0.0,0.0,0.0,0.0,0.0,-0.002153,0.020744,0.075806,-0.013337,0.103464,0.093086
947,200000000.0,0.0,0.0,0.0,1.0,0.0,0.0,0.0,0.0,0.0,0.0,-0.002153,0.020744,0.075806,-0.013337,0.103464,0.093086
948,210000000.0,0.0,0.0,0.0,1.0,0.0,0.0,0.0,0.0,0.0,0.0,-0.002153,0.020744,0.075806,-0.013337,0.103464,0.093086
949,220000000.0,0.0,0.0,0.0,1.0,0.0,0.0,0.0,0.0,0.0,0.0,-0.002153,0.020744,0.075806,-0.013337,0.103464,0.093086
950,230000000.0,0.0,0.0,0.0,1.0,0.0,0.0,0.0,0.0,0.0,0.0,-0.002153,0.020744,0.075806,-0.013337,0.103464,0.093086
951,240000000.0,0.0,0.0,0.0,1.0,0.0,0.0,0.0,0.0,0.0,0.0,-0.002153,0.020744,0.075806,-0.013337,0.103464,0.093086
952,250000000.0,0.0,0.0,0.0,1.0,0.0,0.0,0.0,0.0,0.0,0.0,-0.002153,0.020744,0.075806,-0.013337,0.103464,0.093086
953,260000000.0,0.0,0.0,0.0,1.0,0.0,0.0,0.0,0.0,0.0,0.0,-0.002153,0.020744,0.075806,-0.013337,0.103464,0.093086
954,270000000.0,1.42108547152e-14,6.22177030891e-05,7.1054273576e-15,1.0,0.0,0.0,0.0,-4.82688335524e-07,-0.00622082687914,9.97110127712e-09,-0.002153,0.020744,0.075806,-0.013337,0.103464,0.093086
955,280000000.0,-7.1054273576e-15,0.000114898663011,-7.1054273576e-15,1.0,0.0,0.0,0.0,-2.71232494242e-07,-0.00526638980955,1.13952882677e-08,-0.002153,0.020744,0.075806,-0.013337,0.103464,0.093086
956,290000000.0,7.1054273576e-15,0.000159187242389,0.0,1.0,0.0,0.0,0.0,-3.81435512509e-07,-0.00442978832871,-5.18786347258e-09,-0.002153,0.020744,0.075806,-0.013337,0.103464,0.093086
957,300000000.0,-7.1054273576e-15,0.000196189852431,0.0,1.0,0.0,0.0,0.0,-3.16306795867e-07,-0.00370200141333,-1.85938162651e-08,-0.002153,0.020744,0.075806,-0.013337,0.103464,0.093086
958,310000000.0,7.1054273576e-15,0.000226898118854,0.0,1.0,0.0,0.0,0.0,-2.56071274407e-07,-0.00306912418455,-2.09222883528e-09,-0.002153,0.020744,0.075806,-0.013337,0.103464,0.093086
959,320000000.0,-7.1054273576e-15,0.000252075144083,0.0,1.0,0.0,0.0,0.0,-1.94908253093e-07,-0.0025176142808,1.26232437832e-08,-0.002153,0.020744,0.075806,-0.013337,0.103464,0.093086
960,330000000.0,0.0,0.000272483797737,0.0,1.0,0.0,0.0,0.0,-5.78323984257e-08,-0.00203976617195,-2.29531904638e-09,-0.002153,0.020744,0.075806,-0.013337,0.103464,0.093086
961,340000000.0,0.0,0.000288772513159,-3.5527136788e-15,1.0,0.0,0.0,0.0,-3.08920498071e-08,-0.00162791251205,-1.42567524485e-09,-0.002153,0.020744,0.075806,-0.013337,0.103464,0.093086
962,350000000.0,0.0,0.000301475520242,-3.5527136788e-15,1.0,0.0,0.0,0.0,-4.13730276705e-08,-0.00127209664788,-1.76727998923e-09,-0.002153,0.020744,0.075806,-0.013337,0.103464,0.093086
963,360000000.0,0.0,0.000311126699668,0.0,1.0,0.0,0.0,0.0,-1.03639852256e-08,-0.000966682389844,-1.81229353757e-09,-0.002153,0.020744,0.075806,-0.013337,0.103464,0.093086
964,370000000.0,-7.1054273576e-15,0.000318183912892,3.5527136788e-15,1.0,0.0,0.0,0.0,2.36522912367e-09,-0.000706367485691,-1.93820404171e-09,-0.002153,0.020744,0.075806,-0.013337,0.103464,0.093086
965,380000000.0,0.0,0.00032302853651,-3.5527136788e-15,1.0,0.0,0.0,0.0,2.25857821334e-08,-0.000485382071929,-2.09801354078e-09,-0.002153,0.020744,0.075806,-0.013337,0.103464,0.093086
966,390000000.0,0.0,0.00032600399572,0.0,1.0,0.0,0.0,0.0,-1.0599626421e-07,-0.000296134938253,-3.57797169675e-09,-0.002153,0.020744,0.075806,-0.013337,0.103464,0.093086
967,400000000.0,0.0,0.000327377230853,0.0,1.0,0.0,0.0,0.0,4.39152607612e-08,-0.000136613845825,-2.41354425337e-09,-0.002153,0.020744,0.075806,-0.013337,0.103464,0.093086
968,410000000.0,0.0,0.000327377230853,0.0,1.0,0.0,0.0,0.0,-4.58705322615e-08,-3.09944152832e-06,-3.46206530111e-09,-0.002153,0.020744,0.075806,-0.013337,0.103464,0.093086
969,420000000.0,0.0,0.000326347304508,3.5527136788e-15,1.0,0.0,0.0,0.0,7.50802868765e-08,0.000106439591036,1.26496821906e-08,-0.002153,0.020744,0.075806,-0.013337,0.103464,0.093086
970,430000000.0,7.1054273576e-15,0.000324363703839,0.0,1.0,0.0,0.0,0.0,5.78982621846e-08,0.000197439192561,-3.92017573955e-09,-0.002153,0.020744,0.075806,-0.013337,0.103464,0.093086
971,440000000.0,0.0,0.000321655184958,-7.1054273576e-15,1.0,0.0,0.0,0.0,1.1682304546e-07,0.000271062832326,1.25203856172e-08,-0.002153,0.020744,0.075806,-0.013337,0.103464,0.093086
972,450000000.0,0.0,0.000318336416964,-7.1054273576e-15,1.0,0.0,0.0,0.0,3.67146490987e-08,0.000330533977831,-4.55285764642e-09,-0.002153,0.020744,0.075806,-0.013337,0.103464,0.093086
973,460000000.0,0.0,0.000314559903924,0.0,1.0,0.0,0.0,0.0,4.93214571406e-08,0.000377016054699,-3.77137077123e-09,-0.002153,0.020744,0.075806,-0.013337,0.103464,0.093086
974,470000000.0,-7.1054273576e-15,0.000310440082103,0.0,1.0,0.0,0.0,0.0,1.05057829103e-07,0.00041199682164,-3.5304807966e-09,-0.002153,0.020744,0.075806,-0.013337,0.103464,0.093086
975,480000000.0,7.1054273576e-15,0.000306053087112,-7.1054273576e-15,1.0,0.0,0.0,0.0,-4.17364276473e-08,0.000439548486611,-5.11764186573e-09,-0.002153,0.020744,0.075806,-0.013337,0.103464,0.093086
976,490000000.0,0.0,0.000301475520242,-3.5527136788e-15,1.0,0.0,0.0,0.0,1.4838931861e-07,0.000457258225651,-3.45561046433e-09,-0.002153,0.020744,0.075806,-0.013337,0.103464,0.093086
977,500000000.0,0.0,0.000296783400696,0.0,1.0,0.0,0.0,0.0,2.3312876074e-09,0.000468940736027,1.01282395804e-08,-0.002153,0.020744,0.075806,-0.013337,0.103464,0.093086
978,510000000.0,1.42108547152e-14,0.000292053213343,0.0,1.0,0.0,0.0,0.0,-5.75390686208e-08,0.000474262225907,-6.55522480736e-09,-0.002153,0.020744,0.075806,-0.013337,0.103464,0.093086
979,520000000.0,7.1054273576e-15,0.000287284841761,0.0,1.0,0.0,0.0,0.0,-8.36000157989e-09,0.000476350774989,-5.14353137851e-09,-0.002153,0.020744,0.075806,-0.013337,0.103464,0.093086
980,530000000.0,0.0,0.000282554537986,3.5527136788e-15,1.0,0.0,0.0,0.0,3.60153018519e-09,0.000474157335702,-5.06998532035e-09,-0.002153,0.020744,0.075806,-0.013337,0.103464,0.093086
981,540000000.0,7.1054273576e-15,0.000277862534858,0.0,1.0,0.0,0.0,0.0,-8.19456786871e-08,0.000467681878945,-5.81344661291e-09,-0.002153,0.020744,0.075806,-0.013337,0.103464,0.093086
982,550000000.0,0.0,0.00027328485157,0.0,1.0,0.0,0.0,0.0,5.04148545133e-09,0.000459070201032,2.54826808544e-08,-0.002153,0.020744,0.075806,-0.013337,0.103464,0.093086
983,560000000.0,-1.42108547152e-14,0.000268821720962,3.5527136788e-15,1.0,0.0,0.0,0.0,9.14136109031e-08,0.000448007573141,-5.87300963414e-09,-0.002153,0.020744,0.075806,-0.013337,0.103464,0.093086
984,570000000.0,0.0,0.000264472910203,0.0,1.0,0.0,0.0,0.0,2.07651638107e-07,0.000435028079664,-3.03856650941e-09,-0.002153,0.020744,0.075806,-0.013337,0.103464,0.093086
985,580000000.0,0.0,0.000260238652121,7.1054273576e-15,1.0,0.0,0.0,0.0,4.30779714122e-08,0.000422096229158,1.07949125195e-08,-0.002153,0.020744,0.075806,-0.013337,0.103464,0.093086
986,590000000.0,7.1054273576e-15,0.000256195082329,0.0,1.0,0.0,0.0,0.0,4.19918997352e-08,0.000406217557611,-5.40468692012e-09,-0.002153,0.020744,0.075806,-0.013337,0.103464,0.093086
987,600000000.0,0.0,0.000252265948799,-7.1054273576e-15,1.0,0.0,0.0,0.0,-5.61378712405e-08,0.000391368870623,-5.78796521816e-09,-0.002153,0.020744,0.075806,-0.013337,0.103464,0.093086
988,610000000.0,7.1054273576e-15,0.000248527503569,0.0,1.0,0.0,0.0,0.0,1.70560987556e-08,0.00037553787115,1.01193622371e-08,-0.002153,0.020744,0.075806,-0.013337,0.103464,0.093086
989,620000000.0,0.0,0.000244941678833,3.5527136788e-15,1.0,0.0,0.0,0.0,1.88710713722e-09,0.000360431673471,9.03601105059e-09,-0.002153,0.020744,0.075806,-0.013337,0.103464,0.093086
990,630000000.0,0.0,0.00024150847457,0.0,1.0,0.0,0.0,0.0,-4.08067107882e-10,0.00034294129,-2.11585380327e-08,-0.002153,0.020744,0.075806,-0.013337,0.103464,0.093086
991,640000000.0,7.1054273576e-15,0.000238227774386,0.0,1.0,0.0,0.0,0.0,3.68194932321e-08,0.000326967245201,-3.91899224178e-09,-0.002153,0.020744,0.075806,-0.013337,0.103464,0.093086
992,650000000.0,0.0,0.000235137878914,0.0,1.0,0.0,0.0,0.0,7.43932337954e-09,0.000309915543767,-5.28673105288e-09,-0.002153,0.020744,0.075806,-0.013337,0.103464,0.093086
993,660000000.0,-7.1054273576e-15,0.000232200603929,0.0,1.0,0.0,0.0,0.0,-7.14930692425e-08,0.00029511449975,2.43094451236e-08,-0.002153,0.020744,0.075806,-0.013337,0.103464,0.093086
994,670000000.0,7.1054273576e-15,0.000229415833022,0.0,1.0,0.0,0.0,0.0,6.09534254181e-08,0.000279378873529,-6.58282939264e-09,-0.002153,0.020744,0.075806,-0.013337,0.103464,0.093086
995,680000000.0,7.1054273576e-15,0.000229415833022,0.0,1.0,0.0,0.0,0.0,0.0,0.0,0.0,-0.002153,0.020744,0.075806,-0.013337,0.103464,0.093086
996,690000000.0,7.1054273576e-15,0.000229415833022,0.0,1.0,0.0,0.0,0.0,3.69266857092e-08,6.46686530672e-05,-1.45827181441e-08,-0.002153,0.020744,0.075806,-0.013337,0.103464,0.093086
997,700000000.0,0.0,0.000227928161625,0.0,1.0,0.0,0.0,0.0,-3.0176821042e-08,8.58211496961e-05,1.43729605996e-09,-0.002153,0.020744,0.075806,-0.013337,0.103464,0.093086
998,710000000.0,7.1054273576e-15,0.000226898118854,0.0,1.0,0.0,0.0,0.0,-5.14705078558e-09,0.000102205274743,1.26114452215e-09,-0.002153,0.020744,0.075806,-0.013337,0.103464,0.093086
999,720000000.0,0.0,0.00022575375624,-3.5527136788e-15,1.0,0.0,0.0,0.0,3.6264044212e-08,0.000115137096145,-1.32973871914e-08,-0.002153,0.020744,0.075806,-0.013337,0.103464,0.093086
1000,730000000.0,0.0,0.000224494957358,0.0,1.0,0.0,0.0,0.0,7.08832414986e-09,0.000125131598907,-1.22400249935e-08,-0.002153,0.020744,0.075806,-0.013337,0.103464,0.093086
1001,740000000.0,0.0,0.000223159790039,-3.5527136788e-15,1.0,0.0,0.0,0.0,-3.49467477179e-08,0.000132112501888,3.12152548257e-09,-0.002153,0.020744,0.075806,-0.013337,0.103464,0.093086
1002,750000000.0,7.1054273576e-15,0.000221786438487,7.1054273576e-15,1.0,0.0,0.0,0.0,-4.40938947577e-08,0.000137891765917,1.7898662108e-08,-0.002153,0.020744,0.075806,-0.013337,0.103464,0.093086
1003,760000000.0,0.0,0.000220375019119,0.0,1.0,0.0,0.0,0.0,6.38983834733e-08,0.000139274590765,-1.21759420324e-08,-0.002153,0.020744,0.075806,-0.013337,0.103464,0.093086
1004,770000000.0,-7.1054273576e-15,0.000218963599757,0.0,1.0,0.0,0.0,0.0,-2.58582257828e-08,0.000141048425576,4.22832258098e-09,-0.002153,0.020744,0.075806,-0.013337,0.103464,0.093086
1005,780000000.0,7.1054273576e-15,0.000217552180398,0.0,1.0,0.0,0.0,0.0,-6.91536357067e-08,0.000141229626024,3.18167292514e-09,-0.002153,0.020744,0.075806,-0.013337,0.103464,0.093086
1006,790000000.0,0.0,0.000216140761037,0.0,1.0,0.0,0.0,0.0,4.94857381739e-08,0.00014015196939,4.63022420406e-09,-0.002153,0.020744,0.075806,-0.013337,0.103464,0.093086
1007,800000000.0,-7.1054273576e-15,0.000214767409489,7.1054273576e-15,1.0,0.0,0.0,0.0,4.36559446371e-08,0.000137481692946,-1.02724584394e-08,-0.002153,0.020744,0.075806,-0.013337,0.103464,0.093086
1008,810000000.0,0.0,0.000213394174349,-7.1054273576e-15,1.0,0.0,0.0,0.0,-2.93564923481e-08,0.000135650625452,5.46227596489e-09,-0.002153,0.020744,0.075806,-0.013337,0.103464,0.093086
1009,820000000.0,0.0,0.000212059007026,0.0,1.0,0.0,0.0,0.0,-5.60001556238e-09,0.000133047098643,5.30453148076e-09,-0.002153,0.020744,0.075806,-0.013337,0.103464,0.093086
1010,830000000.0,7.1054273576e-15,0.000210800091732,0.0,1.0,0.0,0.0,0.0,-1.70343128492e-09,0.000127763749333,5.56640422647e-09,-0.002153,0.020744,0.075806,-0.013337,0.103464,0.093086
1011,840000000.0,-7.1054273576e-15,0.000209541292858,-7.1054273576e-15,1.0,0.0,0.0,0.0,-1.06954023416e-09,0.000124273297843,5.96079008377e-09,-0.002153,0.020744,0.075806,-0.013337,0.103464,0.093086
1012,850000000.0,0.0,0.000208358746015,-3.5527136788e-15,1.0,0.0,0.0,0.0,3.62778571628e-08,0.000120077129395,-8.58465742935e-09,-0.002153,0.020744,0.075806,-0.013337,0.103464,0.093086
1013,860000000.0,0.0,0.000207214266997,0.0,1.0,0.0,0.0,0.0,7.17264780903e-09,0.000114383692562,-7.79453745989e-09,-0.002153,0.020744,0.075806,-0.013337,0.103464,0.093086
1014,870000000.0,0.0,0.000206108088598,7.1054273576e-15,1.0,0.0,0.0,0.0,-3.37514656223e-08,0.000110149383545,6.98208424413e-09,-0.002153,0.020744,0.075806,-0.013337,0.103464,0.093086
1015,880000000.0,7.1054273576e-15,0.000205039978027,0.0,1.0,0.0,0.0,0.0,-5.75697622907e-09,0.000105352402898,6.56652199285e-09,-0.002153,0.020744,0.075806,-0.013337,0.103464,0.093086
1016,890000000.0,7.1054273576e-15,0.000205039978027,0.0,1.0,0.0,0.0,0.0,3.58489309349e-08,0.000100021359685,-7.92864973673e-09,-0.002153,0.020744,0.075806,-0.013337,0.103464,0.093086
1017,900000000.0,0.0,0.000203094445162,-3.5527136788e-15,1.0,0.0,0.0,0.0,-2.9866779272e-08,9.58824166446e-05,7.56982299067e-09,-0.002153,0.020744,0.075806,-0.013337,0.103464,0.093086
1018,910000000.0,0.0,0.000203094445162,-3.5527136788e-15,1.0,0.0,0.0,0.0,-6.95517030636e-08,9.05704509933e-05,6.24396534478e-09,-0.002153,0.020744,0.075806,-0.013337,0.103464,0.093086
1019,920000000.0,-1.42108547152e-14,0.000201301532794,0.0,1.0,0.0,0.0,0.0,8.78921184722e-08,8.63265959197e-05,-7.58544338452e-09,-0.002153,0.020744,0.075806,-0.013337,0.103464,0.093086
1020,930000000.0,-1.42108547152e-14,0.000201301532794,0.0,1.0,0.0,0.0,0.0,-2.2798202437e-08,8.11958307168e-05,7.79036746225e-09,-0.002153,0.020744,0.075806,-0.013337,0.103464,0.093086
1021,940000000.0,0.0,0.000199737492945,0.0,1.0,0.0,0.0,0.0,-3.18645776431e-09,7.71999330027e-05,6.78766109986e-09,-0.002153,0.020744,0.075806,-0.013337,0.103464,0.093086
1022,950000000.0,0.0,0.000199737492945,0.0,1.0,0.0,0.0,0.0,-2.83286087921e-08,7.37094887882e-05,-8.55794279885e-09,-0.002153,0.020744,0.075806,-0.013337,0.103464,0.093086
1023,960000000.0,-7.1054273576e-15,0.000198326073583,0.0,1.0,0.0,0.0,0.0,5.80927128624e-08,6.91604582244e-05,-6.45372599804e-09,-0.002153,0.020744,0.075806,-0.013337,0.103464,0.093086
1024,970000000.0,-7.1054273576e-15,0.000198326073583,0.0,1.0,0.0,0.0,0.0,-2.58513814799e-08,6.57558412058e-05,7.62419460899e-09,-0.002153,0.020744,0.075806,-0.013337,0.103464,0.093086
1025,980000000.0,0.0,0.000197067274708,-3.5527136788e-15,1.0,0.0,0.0,0.0,-3.98554655945e-09,6.22081715846e-05,6.92653623348e-09,-0.002153,0.020744,0.075806,-0.013337,0.103464,0.093086
1026,990000000.0,0.0,0.000197067274708,-3.5527136788e-15,1.0,0.0,0.0,0.0,-8.65951754747e-10,5.81073763897e-05,7.09280456591e-09,-0.002153,0.020744,0.075806,-0.013337,0.103464,0.093086
1027,1000000000.0,7.1054273576e-15,0.000195960979905,-3.5527136788e-15,1.0,0.0,0.0,0.0,3.70422661433e-08,5.38921340194e-05,-7.7359878503e-09,-0.002153,0.020744,0.075806,-0.013337,0.103464,0.093086
1028,1010000000.0,7.1054273576e-15,0.000195960979905,-3.5527136788e-15,1.0,0.0,0.0,0.0,7.92052556875e-09,5.17082189617e-05,-7.14930648015e-09,-0.002153,0.020744,0.075806,-0.013337,0.103464,0.093086
1029,1020000000.0,7.1054273576e-15,0.000195960979905,-3.5527136788e-15,1.0,0.0,0.0,0.0,-3.45481687702e-08,4.71878047392e-05,7.4676371753e-09,-0.002153,0.020744,0.075806,-0.013337,0.103464,0.093086
1030,1030000000.0,-7.1054273576e-15,0.000194511376321,0.0,1.0,0.0,0.0,0.0,-5.59728707827e-09,4.41265110567e-05,6.4821965573e-09,-0.002153,0.020744,0.075806,-0.013337,0.103464,0.093086
1031,1040000000.0,-7.1054273576e-15,0.000194511376321,0.0,1.0,0.0,0.0,0.0,-3.09274245103e-10,4.21333315899e-05,6.33029051401e-09,-0.002153,0.020744,0.075806,-0.013337,0.103464,0.093086
1032,1050000000.0,-7.1054273576e-15,0.000194511376321,0.0,1.0,0.0,0.0,0.0,3.78753419739e-08,3.87096406484e-05,-8.63344595813e-09,-0.002153,0.020744,0.075806,-0.013337,0.103464,0.093086
1033,1060000000.0,0.0,0.000193328829475,3.5527136788e-15,1.0,0.0,0.0,0.0,-5.81229215868e-08,3.67259963241e-05,-8.89119711189e-09,-0.002153,0.020744,0.075806,-0.013337,0.103464,0.093086
1034,1070000000.0,0.0,0.000193328829475,3.5527136788e-15,1.0,0.0,0.0,0.0,1.78208789947e-08,3.39603429893e-05,6.75715083887e-09,-0.002153,0.020744,0.075806,-0.013337,0.103464,0.093086
1035,1080000000.0,0.0,0.000193328829475,3.5527136788e-15,1.0,0.0,0.0,0.0,4.05827940142e-08,3.10134892061e-05,-9.38966149277e-09,-0.002153,0.020744,0.075806,-0.013337,0.103464,0.093086
1036,1090000000.0,0.0,0.000193328829475,3.5527136788e-15,1.0,0.0,0.0,0.0,-5.61437012436e-08,2.95543668472e-05,-9.32231625227e-09,-0.002153,0.020744,0.075806,-0.013337,0.103464,0.093086
1037,1100000000.0,0.0,0.000193328829475,3.5527136788e-15,1.0,0.0,0.0,0.0,0.0,0.0,0.0,-0.002153,0.020744,0.075806,-0.013337,0.103464,0.093086
1038,1110000000.0,0.0,0.000192298903126,0.0,1.0,0.0,0.0,0.0,-2.98606916971e-10,6.32286037217e-06,4.45067649403e-10,-0.002153,0.020744,0.075806,-0.013337,0.103464,0.093086
1039,1120000000.0,0.0,0.000192298903126,0.0,1.0,0.0,0.0,0.0,2.96208418904e-10,8.21113553684e-06,4.40117914336e-10,-0.002153,0.020744,0.075806,-0.013337,0.103464,0.093086
1040,1130000000.0,0.0,0.000192298903126,0.0,1.0,0.0,0.0,0.0,-2.60187177359e-10,1.00517272585e-05,7.58742513264e-10,-0.002153,0.020744,0.075806,-0.013337,0.103464,0.093086
1041,1140000000.0,0.0,0.000192298903126,0.0,1.0,0.0,0.0,0.0,-3.71973172264e-08,1.13582609629e-05,1.56449075917e-08,-0.002153,0.020744,0.075806,-0.013337,0.103464,0.093086
1042,1150000000.0,0.0,0.000192298903126,0.0,1.0,0.0,0.0,0.0,2.94175706017e-08,1.19400019685e-05,4.52936299579e-10,-0.002153,0.020744,0.075806,-0.013337,0.103464,0.093086
1043,1160000000.0,0.0,0.000192298903126,0.0,1.0,0.0,0.0,0.0,4.18531342916e-08,1.24168391267e-05,-1.35796129896e-08,-0.002153,0.020744,0.075806,-0.013337,0.103464,0.093086
1044,1170000000.0,0.0,0.000192298903126,0.0,1.0,0.0,0.0,0.0,-2.89254735719e-08,1.1930465007e-05,2.14857309722e-09,-0.002153,0.020744,0.075806,-0.013337,0.103464,0.093086
1045,1180000000.0,0.0,0.000192298903126,0.0,1.0,0.0,0.0,0.0,3.34617098474e-08,1.21784205476e-05,-1.33841036032e-08,-0.002153,0.020744,0.075806,-0.013337,0.103464,0.093086
1046,1190000000.0,0.0,0.000192298903126,0.0,1.0,0.0,0.0,0.0,-3.00245375229e-08,1.29413601826e-05,2.37959740801e-09,-0.002153,0.020744,0.075806,-0.013337,0.103464,0.093086
1047,1200000000.0,0.0,0.000191268860355,-3.5527136788e-15,1.0,0.0,0.0,0.0,-4.23470467581e-08,1.36089320222e-05,1.64984275131e-08,-0.002153,0.020744,0.075806,-0.013337,0.103464,0.093086
1048,1210000000.0,0.0,0.000191268860355,-3.5527136788e-15,1.0,0.0,0.0,0.0,2.82042993405e-08,1.35135651362e-05,1.02453101558e-09,-0.002153,0.020744,0.075806,-0.013337,0.103464,0.093086
1049,1220000000.0,0.0,0.000191268860355,-3.5527136788e-15,1.0,0.0,0.0,0.0,4.00096045183e-09,1.28746032715e-05,1.68240665843e-09,-0.002153,0.020744,0.075806,-0.013337,0.103464,0.093086
1050,1230000000.0,0.0,0.000191268860355,-3.5527136788e-15,1.0,0.0,0.0,0.0,7.42628292194e-10,1.21212005979e-05,1.75646075462e-09,-0.002153,0.020744,0.075806,-0.013337,0.103464,0.093086
1051,1240000000.0,0.0,0.000191268860355,-3.5527136788e-15,1.0,0.0,0.0,0.0,3.72844120022e-08,1.16729734145e-05,-1.32437110167e-08,-0.002153,0.020744,0.075806,-0.013337,0.103464,0.093086
1052,1250000000.0,0.0,0.000191268860355,-3.5527136788e-15,1.0,0.0,0.0,0.0,-2.95402138306e-08,1.17397303256e-05,2.47955989075e-09,-0.002153,0.020744,0.075806,-0.013337,0.103464,0.093086
1053,1260000000.0,0.0,0.000191268860355,-3.5527136788e-15,1.0,0.0,0.0,0.0,-6.9909560807e-08,1.13964078992e-05,1.13549747383e-09,-0.002153,0.020744,0.075806,-0.013337,0.103464,0.093086
1054,1270000000.0,0.0,0.000191268860355,-3.5527136788e-15,1.0,0.0,0.0,0.0,8.76168968489e-08,1.13773339763e-05,-1.24889822928e-08,-0.002153,0.020744,0.075806,-0.013337,0.103464,0.093086
1055,1280000000.0,0.0,0.000191268860355,-3.5527136788e-15,1.0,0.0,0.0,0.0,1.51039820651e-08,1.00994111563e-05,-1.20849890095e-08,-0.002153,0.020744,0.075806,-0.013337,0.103464,0.093086
1056,1290000000.0,0.0,0.000190200749785,0.0,1.0,0.0,0.0,0.0,-7.01569575767e-08,1.08051299321e-05,1.76764469728e-08,-0.002153,0.020744,0.075806,-0.013337,0.103464,0.093086
1057,1300000000.0,0.0,0.000190200749785,0.0,1.0,0.0,0.0,0.0,2.45272566701e-08,9.76562478172e-06,1.6886678722e-09,-0.002153,0.020744,0.075806,-0.013337,0.103464,0.093086
1058,1310000000.0,0.0,0.000190200749785,0.0,1.0,0.0,0.0,0.0,3.16038262227e-09,9.67979394773e-06,2.8465971802e-09,-0.002153,0.020744,0.075806,-0.013337,0.103464,0.093086
1059,1320000000.0,0.0,0.000190200749785,0.0,1.0,0.0,0.0,0.0,4.55359250306e-10,9.48905926634e-06,2.91265411789e-09,-0.002153,0.020744,0.075806,-0.013337,0.103464,0.093086
1060,1330000000.0,0.0,0.000190200749785,0.0,1.0,0.0,0.0,0.0,3.70452930554e-08,8.19206252345e-06,-1.15397966738e-08,-0.002153,0.020744,0.075806,-0.013337,0.103464,0.093086
1061,1340000000.0,0.0,0.000190200749785,0.0,1.0,0.0,0.0,0.0,-9.40296231988e-08,8.15391558717e-06,3.18964099577e-09,-0.002153,0.020744,0.075806,-0.013337,0.103464,0.093086
1062,1350000000.0,0.0,0.000190200749785,0.0,1.0,0.0,0.0,0.0,8.36348448274e-08,7.44819635656e-06,-1.09793099057e-08,-0.002153,0.020744,0.075806,-0.013337,0.103464,0.093086
1063,1360000000.0,0.0,0.000190200749785,0.0,1.0,0.0,0.0,0.0,-5.96236162664e-08,7.59124759497e-06,1.90950313339e-08,-0.002153,0.020744,0.075806,-0.013337,0.103464,0.093086
1064,1370000000.0,0.0,0.000190200749785,0.0,1.0,0.0,0.0,0.0,6.27692031685e-08,6.4277646743e-06,-1.15916369836e-08,-0.002153,0.020744,0.075806,-0.013337,0.103464,0.093086
1065,1380000000.0,0.0,0.000190200749785,0.0,1.0,0.0,0.0,0.0,-6.27369800554e-08,6.43730163574e-06,1.94732994174e-08,-0.002153,0.020744,0.075806,-0.013337,0.103464,0.093086
1066,1390000000.0,0.0,0.000190200749785,0.0,1.0,0.0,0.0,0.0,6.24889793244e-08,5.1403044381e-06,-1.1143053591e-08,-0.002153,0.020744,0.075806,-0.013337,0.103464,0.093086
1067,1400000000.0,0.0,0.000190200749785,0.0,1.0,0.0,0.0,0.0,-2.5499529599e-08,5.45501688975e-06,5.12299358491e-09,-0.002153,0.020744,0.075806,-0.013337,0.103464,0.093086
1068,1410000000.0,0.0,0.000190200749785,0.0,1.0,0.0,0.0,0.0,-3.49701623215e-09,6.15119915892e-06,4.45954562167e-09,-0.002153,0.020744,0.075806,-0.013337,0.103464,0.093086
1069,1420000000.0,0.0,0.000190200749785,0.0,1.0,0.0,0.0,0.0,3.65746650743e-08,4.30107093052e-06,-1.00169978978e-08,-0.002153,0.020744,0.075806,-0.013337,0.103464,0.093086
1070,1430000000.0,0.0,0.000190200749785,0.0,1.0,0.0,0.0,0.0,-2.89622210659e-08,4.47273259851e-06,5.50107648323e-09,-0.002153,0.020744,0.075806,-0.013337,0.103464,0.093086
1071,1440000000.0,-7.1054273576e-15,0.000189170823433,0.0,1.0,0.0,0.0,0.0,-6.87762522489e-08,4.30107093052e-06,4.27382351731e-09,-0.002153,0.020744,0.075806,-0.013337,0.103464,0.093086
1072,1450000000.0,-7.1054273576e-15,0.000189170823433,0.0,1.0,0.0,0.0,0.0,5.05843580356e-08,4.11033624914e-06,5.62096857948e-09,-0.002153,0.020744,0.075806,-0.013337,0.103464,0.093086
1073,1460000000.0,-7.1054273576e-15,0.000189170823433,0.0,1.0,0.0,0.0,0.0,4.42766712183e-08,3.56674195245e-06,-9.15561315651e-09,-0.002153,0.020744,0.075806,-0.013337,0.103464,0.093086
1074,1470000000.0,-7.1054273576e-15,0.000189170823433,0.0,1.0,0.0,0.0,0.0,-2.80576024636e-08,3.60488888873e-06,6.16915185603e-09,-0.002153,0.020744,0.075806,-0.013337,0.103464,0.093086
1075,1480000000.0,-7.1054273576e-15,0.000189170823433,0.0,1.0,0.0,0.0,0.0,-3.06502698777e-08,3.72886643163e-06,-1.01456203438e-08,-0.002153,0.020744,0.075806,-0.013337,0.103464,0.093086
1076,1490000000.0,-7.1054273576e-15,0.000189170823433,0.0,1.0,0.0,0.0,0.0,2.15707327555e-08,2.99453722619e-06,6.58276100296e-09,-0.002153,0.020744,0.075806,-0.013337,0.103464,0.093086
1077,1500000000.0,-7.1054273576e-15,0.000189170823433,0.0,1.0,0.0,0.0,0.0,4.01674782324e-08,2.31742842516e-06,-9.05876440527e-09,-0.002153,0.020744,0.075806,-0.013337,0.103464,0.093086
1078,1510000000.0,-7.1054273576e-15,0.000189170823433,0.0,1.0,0.0,0.0,0.0,-2.84354246816e-08,2.22206108447e-06,6.31315399957e-09,-0.002153,0.020744,0.075806,-0.013337,0.103464,0.093086
1079,1520000000.0,-7.1054273576e-15,0.000189170823433,0.0,1.0,0.0,0.0,0.0,0.0,0.0,0.0,-0.002153,0.020744,0.075806,-0.013337,0.103464,0.093086
1080,1530000000.0,-7.1054273576e-15,0.000189170823433,0.0,1.0,0.0,0.0,0.0,-9.33696106542e-11,2.86102277869e-07,-1.02379132949e-10,-0.002153,0.020744,0.075806,-0.013337,0.103464,0.093086
1081,1540000000.0,-7.1054273576e-15,0.000189170823433,0.0,1.0,0.0,0.0,0.0,-1.1147042317e-10,5.72204555738e-07,-1.97199617746e-10,-0.002153,0.020744,0.075806,-0.013337,0.103464,0.093086
1082,1550000000.0,-7.1054273576e-15,0.000189170823433,0.0,1.0,0.0,0.0,0.0,-1.18701715124e-10,8.58306862028e-07,-2.91696999888e-10,-0.002153,0.020744,0.075806,-0.013337,0.103464,0.093086
1083,1560000000.0,-7.1054273576e-15,0.000189170823433,0.0,1.0,0.0,0.0,0.0,-1.24360313714e-10,1.14440911148e-06,-3.86168430566e-10,-0.002153,0.020744,0.075806,-0.013337,0.103464,0.093086
1084,1570000000.0,-7.1054273576e-15,0.000189170823433,0.0,1.0,0.0,0.0,0.0,-1.29795063586e-10,1.43051147461e-06,-4.80636364042e-10,-0.002153,0.020744,0.075806,-0.013337,0.103464,0.093086
1085,1580000000.0,-7.1054273576e-15,0.000189170823433,0.0,1.0,0.0,0.0,0.0,-1.35195563078e-10,1.71661372406e-06,-5.75103853428e-10,-0.002153,0.020744,0.075806,-0.013337,0.103464,0.093086
1086,1590000000.0,-7.1054273576e-15,0.000189170823433,0.0,1.0,0.0,0.0,0.0,-1.40592065767e-10,2.0027159735e-06,-6.69571342815e-10,-0.002153,0.020744,0.075806,-0.013337,0.103464,0.093086
1087,1600000000.0,-7.1054273576e-15,0.000189170823433,0.0,1.0,0.0,0.0,0.0,2.64779735915e-08,1.11579890927e-06,1.46890091202e-08,-0.002153,0.020744,0.075806,-0.013337,0.103464,0.093086
1088,1610000000.0,-7.1054273576e-15,0.000189170823433,0.0,1.0,0.0,0.0,0.0,-2.30766445952e-08,1.05857850485e-06,-1.95491445254e-09,-0.002153,0.020744,0.075806,-0.013337,0.103464,0.093086
1089,1620000000.0,-7.1054273576e-15,0.000189170823433,0.0,1.0,0.0,0.0,0.0,-4.63638905046e-09,1.30653381802e-06,-9.16067555145e-10,-0.002153,0.020744,0.075806,-0.013337,0.103464,0.093086
1090,1630000000.0,-7.1054273576e-15,0.000189170823433,0.0,1.0,0.0,0.0,0.0,-2.04079020349e-09,1.55448913119e-06,-9.67648294825e-10,-0.002153,0.020744,0.075806,-0.013337,0.103464,0.093086
1091,1640000000.0,-7.1054273576e-15,0.000189170823433,0.0,1.0,0.0,0.0,0.0,-1.20275012172e-09,1.81198117843e-06,-1.31344302101e-09,-0.002153,0.020744,0.075806,-0.013337,0.103464,0.093086
1092,1650000000.0,-7.1054273576e-15,0.000189170823433,0.0,1.0,0.0,0.0,0.0,-1.11612774578e-09,2.06947311199e-06,-1.65181823775e-09,-0.002153,0.020744,0.075806,-0.013337,0.103464,0.093086
1093,1660000000.0,-7.1054273576e-15,0.000189170823433,0.0,1.0,0.0,0.0,0.0,6.33557064589e-08,1.56402586526e-06,-1.11369513611e-09,-0.002153,0.020744,0.075806,-0.013337,0.103464,0.093086
1094,1670000000.0,-7.1054273576e-15,0.000189170823433,0.0,1.0,0.0,0.0,0.0,1.14176463839e-08,1.77383424216e-06,-1.63302238398e-09,-0.002153,0.020744,0.075806,-0.013337,0.103464,0.093086
1095,1680000000.0,-7.1054273576e-15,0.000189170823433,0.0,1.0,0.0,0.0,0.0,-3.32276890447e-08,2.41279599322e-06,-1.73787064739e-08,-0.002153,0.020744,0.075806,-0.013337,0.103464,0.093086
1096,1690000000.0,-7.1054273576e-15,0.000189170823433,0.0,1.0,0.0,0.0,0.0,-4.9963047033e-09,1.7642973944e-06,1.42355700561e-08,-0.002153,0.020744,0.075806,-0.013337,0.103464,0.093086
1097,1700000000.0,-7.1054273576e-15,0.000189170823433,0.0,1.0,0.0,0.0,0.0,-2.02862993071e-09,1.96456903723e-06,1.22017276283e-08,-0.002153,0.020744,0.075806,-0.013337,0.103464,0.093086
1098,1710000000.0,-7.1054273576e-15,0.000189170823433,0.0,1.0,0.0,0.0,0.0,-6.52256204603e-08,1.39236442465e-06,1.15352349894e-08,-0.002153,0.020744,0.075806,-0.013337,0.103464,0.093086
1099,1720000000.0,-7.1054273576e-15,0.000189170823433,0.0,1.0,0.0,0.0,0.0,-1.37467939254e-08,1.54495239713e-06,1.19821441658e-08,-0.002153,0.020744,0.075806,-0.013337,0.103464,0.093086
1100,1730000000.0,-7.1054273576e-15,0.000189170823433,0.0,1.0,0.0,0.0,0.0,3.10173895457e-08,2.11715700971e-06,-2.80223044768e-09,-0.002153,0.020744,0.075806,-0.013337,0.103464,0.093086
1101,1740000000.0,-7.1054273576e-15,0.000189170823433,0.0,1.0,0.0,0.0,0.0,2.92943469482e-09,7.82012932632e-07,-2.37712272089e-09,-0.002153,0.020744,0.075806,-0.013337,0.103464,0.093086
1102,1750000000.0,-7.1054273576e-15,0.000189170823433,0.0,1.0,0.0,0.0,0.0,-1.20099818979e-09,8.96453855148e-07,-2.72261613254e-09,-0.002153,0.020744,0.075806,-0.013337,0.103464,0.093086
1103,1760000000.0,-7.1054273576e-15,0.000189170823433,0.0,1.0,0.0,0.0,0.0,-1.83392778741e-09,1.01089472082e-06,-3.05056557792e-09,-0.002153,0.020744,0.075806,-0.013337,0.103464,0.093086
1104,1770000000.0,-7.1054273576e-15,0.000189170823433,0.0,1.0,0.0,0.0,0.0,-1.96223459703e-09,1.12533564334e-06,-3.37237993087e-09,-0.002153,0.020744,0.075806,-0.013337,0.103464,0.093086
1105,1780000000.0,-7.1054273576e-15,0.000189170823433,0.0,1.0,0.0,0.0,0.0,-2.01772798469e-09,1.23977656585e-06,-3.69319752558e-09,-0.002153,0.020744,0.075806,-0.013337,0.103464,0.093086
1106,1790000000.0,-7.1054273576e-15,0.000189170823433,0.0,1.0,0.0,0.0,0.0,2.55512517811e-08,1.66893005371e-06,1.15077236629e-08,-0.002153,0.020744,0.075806,-0.013337,0.103464,0.093086
1107,1800000000.0,-7.1054273576e-15,0.000189170823433,0.0,1.0,0.0,0.0,0.0,-2.37057111718e-08,1.47819514495e-06,-5.26355625752e-09,-0.002153,0.020744,0.075806,-0.013337,0.103464,0.093086
1108,1810000000.0,-7.1054273576e-15,0.000189170823433,0.0,1.0,0.0,0.0,0.0,2.27270309239e-08,1.90734863281e-06,1.08615152428e-08,-0.002153,0.020744,0.075806,-0.013337,0.103464,0.093086
1109,1820000000.0,-7.1054273576e-15,0.000189170823433,0.0,1.0,0.0,0.0,0.0,-2.37844464124e-08,1.71661372406e-06,-6.05819083788e-09,-0.002153,0.020744,0.075806,-0.013337,0.103464,0.093086
1110,1830000000.0,-7.1054273576e-15,0.000189170823433,0.0,1.0,0.0,0.0,0.0,2.2715148873e-08,2.14576721191e-06,1.00852490803e-08,-0.002153,0.020744,0.075806,-0.013337,0.103464,0.093086
1111,1840000000.0,-7.1054273576e-15,0.000189170823433,0.0,1.0,0.0,0.0,0.0,4.09214706565e-08,1.18255616144e-06,-6.23936191602e-09,-0.002153,0.020744,0.075806,-0.013337,0.103464,0.093086
1112,1850000000.0,-7.1054273576e-15,0.000189170823433,0.0,1.0,0.0,0.0,0.0,8.22273893419e-09,1.24931329992e-06,-6.06054362251e-09,-0.002153,0.020744,0.075806,-0.013337,0.103464,0.093086
1113,1860000000.0,-7.1054273576e-15,0.000189170823433,0.0,1.0,0.0,0.0,0.0,3.00831404232e-09,1.32560728616e-06,-6.34576879932e-09,-0.002153,0.020744,0.075806,-0.013337,0.103464,0.093086
1114,1870000000.0,-7.1054273576e-15,0.000189170823433,0.0,1.0,0.0,0.0,0.0,1.77301040516e-09,1.39236442465e-06,-6.37784003388e-09,-0.002153,0.020744,0.075806,-0.013337,0.103464,0.093086
1115,1880000000.0,-7.1054273576e-15,0.000189170823433,0.0,1.0,0.0,0.0,0.0,-3.55627385318e-08,1.88827505099e-06,-2.19890559094e-08,-0.002153,0.020744,0.075806,-0.013337,0.103464,0.093086
1116,1890000000.0,-7.1054273576e-15,0.000189170823433,0.0,1.0,0.0,0.0,0.0,3.04902094683e-08,1.54495239713e-06,-5.39413358425e-09,-0.002153,0.020744,0.075806,-0.013337,0.103464,0.093086
1117,1900000000.0,-7.1054273576e-15,0.000189170823433,0.0,1.0,0.0,0.0,0.0,-2.27912320128e-08,1.93595883502e-06,8.54372927961e-09,-0.002153,0.020744,0.075806,-0.013337,0.103464,0.093086
1118,1910000000.0,-7.1054273576e-15,0.000189170823433,0.0,1.0,0.0,0.0,0.0,-1.42071616693e-08,1.26838676806e-06,7.54720375085e-09,-0.002153,0.020744,0.075806,-0.013337,0.103464,0.093086
1119,1920000000.0,-7.1054273576e-15,0.000189170823433,0.0,1.0,0.0,0.0,0.0,-4.2911549869e-09,1.32560728616e-06,7.56369455957e-09,-0.002153,0.020744,0.075806,-0.013337,0.103464,0.093086
1120,1930000000.0,-7.1054273576e-15,0.000189170823433,0.0,1.0,0.0,0.0,0.0,-2.49409759512e-09,1.38282769058e-06,7.2876455981e-09,-0.002153,0.020744,0.075806,-0.013337,0.103464,0.093086
1121,1940000000.0,-7.1054273576e-15,0.000189170823433,0.0,1.0,0.0,0.0,0.0,0.0,0.0,0.0,-0.002153,0.020744,0.075806,-0.013337,0.103464,0.093086
1122,1950000000.0,-7.1054273576e-15,0.000189170823433,0.0,1.0,0.0,0.0,0.0,-1.58230772929e-09,4.76837129781e-08,-3.1705663095e-10,-0.002153,0.020744,0.075806,-0.013337,0.103464,0.093086
1123,1960000000.0,-7.1054273576e-15,0.000189170823433,0.0,1.0,0.0,0.0,0.0,-1.89977100717e-09,1.04904174236e-07,-6.01834526659e-10,-0.002153,0.020744,0.075806,-0.013337,0.103464,0.093086
1124,1970000000.0,-7.1054273576e-15,0.000189170823433,0.0,1.0,0.0,0.0,0.0,-2.03469685545e-09,1.62124635494e-07,-8.83736250845e-10,-0.002153,0.020744,0.075806,-0.013337,0.103464,0.093086
1125,1980000000.0,-7.1054273576e-15,0.000189170823433,0.0,1.0,0.0,0.0,0.0,-1.65792435336e-09,2.09808348473e-07,-1.40557154804e-09,-0.002153,0.020744,0.075806,-0.013337,0.103464,0.093086
1126,1990000000.0,-7.1054273576e-15,0.000189170823433,0.0,1.0,0.0,0.0,0.0,-1.66278035785e-09,2.5749204724e-07,-1.91444504694e-09,-0.002153,0.020744,0.075806,-0.013337,0.103464,0.093086
1127,2000000000.0,-7.1054273576e-15,0.000189170823433,0.0,1.0,0.0,0.0,0.0,-1.72268044274e-09,3.05175774429e-07,-2.42357556246e-09,-0.002153,0.020744,0.075806,-0.013337,0.103464,0.093086
1128,2010000000.0,-7.1054273576e-15,0.000189170823433,0.0,1.0,0.0,0.0,0.0,-1.19820453559e-09,3.43322739127e-07,-2.68428790307e-09,-0.002153,0.020744,0.075806,-0.013337,0.103464,0.093086
1129,2020000000.0,-7.1054273576e-15,0.000189170823433,0.0,1.0,0.0,0.0,0.0,-6.46827647e-10,3.81469703825e-07,-2.71803934915e-09,-0.002153,0.020744,0.075806,-0.013337,0.103464,0.093086
1130,2030000000.0,-7.1054273576e-15,0.000189170823433,0.0,1.0,0.0,0.0,0.0,-5.66894475806e-10,4.19616696945e-07,-2.77329914589e-09,-0.002153,0.020744,0.075806,-0.013337,0.103464,0.093086
1131,2040000000.0,-2.58240660855e-07,0.000188102712851,2.47941874321e-05,0.999999999998,1.68088483465e-07,-1.97136324459e-06,8.34465312349e-07,4.56249690615e-05,8.48770127959e-07,0.00272794719785,-0.002153,0.020744,0.075806,-0.013337,0.103464,0.093086
1132,2050000000.0,5.46705258841e-06,0.000211791950278,0.00277158482024,0.999999999398,1.56220618497e-07,-2.84729910779e-06,-3.45706921281e-05,-0.00282403384335,-8.10623134867e-07,0.27166941762,-0.002153,0.020744,0.075806,-0.013337,0.103464,0.093086
1133,2060000000.0,3.18925694387e-06,0.000250205979679,0.00811814928917,0.999999995787,1.41876719262e-07,-3.28787259213e-06,-9.17315461068e-05,-0.00552849471569,-7.43865939568e-07,0.52996712923,-0.002153,0.020744,0.075806,-0.013337,0.103464,0.093086
1134,2070000000.0,6.02047553144e-06,0.000298271188505,0.0159043981865,0.999999986687,1.29490759726e-07,-3.54587433299e-06,-0.00016313790985,-0.00805683713406,-3.91006466316e-07,0.772594034672,-0.002153,0.020744,0.075806,-0.013337,0.103464,0.093086
1135,2080000000.0,5.6955839085e-06,0.000350608839657,0.0258250530944,0.999999970871,1.21724573476e-07,-3.7175314565e-06,-0.000241339185698,-0.0102705508471,-3.71932969773e-06,0.985370516777,-0.002153,0.020744,0.075806,-0.013337,0.103464,0.093086
1136,2090000000.0,4.02226672946e-06,0.000404853839424,0.0377065547009,0.999999948175,1.16840946585e-07,-3.82312960012e-06,-0.000321924675069,-0.0123125268146,-2.4509429295e-06,1.18167626858,-0.002153,0.020744,0.075806,-0.013337,0.103464,0.093086
1137,2100000000.0,1.65510930117e-06,0.000452728243541,0.0507535023045,0.999999922708,1.12801040231e-07,-3.90792025234e-06,-0.00039315220123,-0.013528322801,-1.21116636387e-06,1.29847407341,-0.002153,0.020744,0.075806,-0.013337,0.103464,0.093086
1138,2110000000.0,2.01225738294e-06,0.000503005925566,0.0657365421485,0.999999890501,1.0871842776e-07,-3.92145026268e-06,-0.000467956007062,-0.0155448541045,-1.70707698999e-06,1.49209260941,-0.002153,0.020744,0.075806,-0.013337,0.103464,0.093086
1139,2120000000.0,5.450800586e-06,0.000550308148373,0.0822551130145,0.999999854986,1.15631470898e-07,-3.93186420877e-06,-0.000538527913941,-0.0171481668949,-1.80244444481e-06,1.64596152306,-0.002153,0.020744,0.075806,-0.013337,0.103464,0.093086
1140,2130000000.0,6.94402953627e-06,0.000593032804321,0.100059286324,0.999999818714,1.17716571157e-07,-3.95059773151e-06,-0.000602126056442,-0.0184891335666,-3.16619866703e-06,1.77506697178,-0.002153,0.020744,0.075806,-0.013337,0.103464,0.093086
1141,2140000000.0,1.04256225981e-05,0.000631751958277,0.119137658336,0.999999782309,1.16986881182e-07,-3.9651677633e-06,-0.000659823338941,-0.019819246605,-4.94956975716e-06,1.90295112133,-0.002153,0.020744,0.075806,-0.013337,0.103464,0.093086
1142,2150000000.0,6.61688297043e-06,0.000662269536406,0.138915989331,0.999999751393,1.20226035571e-07,-3.98546076119e-06,-0.00070512287928,-0.0205620955676,-6.91413879428e-06,1.97409498692,-0.002153,0.020744,0.075806,-0.013337,0.103464,0.093086
1143,2160000000.0,9.54463716596e-06,0.000690345768813,0.159878918234,0.999999721147,1.18706587449e-07,-3.9495740472e-06,-0.000746786515132,-0.0218015946448,-5.51223729439e-06,2.0928800106,-0.002153,0.020744,0.075806,-0.013337,0.103464,0.093086
1144,2170000000.0,9.33424836802e-06,0.000711898785081,0.181509422682,0.999999696686,1.21370805573e-07,-3.74152036803e-06,-0.00077885380015,-0.0224987119436,-5.30242914509e-06,2.16004562378,-0.002153,0.020744,0.075806,-0.013337,0.103464,0.093086
1145,2180000000.0,6.7013189522e-06,0.00073036190588,0.204105072653,0.999999674763,1.24610875396e-07,-3.84607586862e-06,-0.000806510290234,-0.0235073361546,-7.82012921308e-06,2.25710988045,-0.002153,0.020744,0.075806,-0.013337,0.103464,0.093086
1146,2190000000.0,5.24135358404e-06,0.000744094839316,0.227320656768,0.999999658162,1.27697968144e-07,-4.26167910778e-06,-0.000826835482018,-0.0241642463952,-7.00950613508e-06,2.31980681419,-0.002153,0.020744,0.075806,-0.013337,0.103464,0.093086
1147,2200000000.0,3.22612628167e-06,0.000754814129319,0.251322105358,0.999999644979,1.19549302791e-07,-3.99015678365e-06,-0.000842630700611,-0.0249880813062,-5.66482549447e-06,2.3985722065,-0.002153,0.020744,0.075806,-0.013337,0.103464,0.093086
1148,2210000000.0,2.58250969409e-06,0.00076210021507,0.275924415642,0.999999635883,1.2764301105e-07,-3.29212613781e-06,-0.000853359542946,-0.0256142057478,-4.82559198689e-06,2.45913338661,-0.002153,0.020744,0.075806,-0.013337,0.103464,0.093086
1149,2220000000.0,2.59537582536e-06,0.000766715966165,0.301196248444,0.999999629959,1.36564077491e-07,-3.46950512936e-06,-0.000860273681309,-0.0263135768473,-4.11987275606e-06,2.52643537521,-0.002153,0.020744,0.075806,-0.013337,0.103464,0.093086
1150,2230000000.0,8.80490311772e-07,0.000768585130572,0.327000242383,0.999999627594,1.43944508313e-07,-3.9215205207e-06,-0.000863015513775,-0.0268781781197,-3.83377073421e-06,2.58015799522,-0.002153,0.020744,0.075806,-0.013337,0.103464,0.093086
1151,2240000000.0,3.78298189219e-07,0.000768623314791,0.353420355975,0.999999627594,1.43944508313e-07,-3.9215205207e-06,-0.000863015513775,-0.027522848919,-3.13758846504e-06,2.64180350304,-0.002153,0.020744,0.075806,-0.013337,0.103464,0.093086
1152,2250000000.0,-1.19611157601e-06,0.000766372657374,0.380309691613,0.999999630522,1.34638463323e-07,-3.51475627269e-06,-0.000859618034178,-0.0280136801302,-1.86920158329e-06,2.68909454346,-0.002153,0.020744,0.075806,-0.013337,0.103464,0.093086
1153,2260000000.0,-1.02148194969e-06,0.000762863084674,0.407763651285,0.999999635017,1.29799256066e-07,-3.46845830029e-06,-0.000854372857136,-0.0286019649357,-2.04086291022e-06,2.74561429024,-0.002153,0.020744,0.075806,-0.013337,0.103464,0.093086
1154,2270000000.0,-1.44231795218e-06,0.000757522531789,0.435641059118,0.999999641759,1.29051047459e-07,-3.48250070648e-06,-0.00084644540446,-0.0290461629629,-1.28746035011e-06,2.78832292557,-0.002153,0.020744,0.075806,-0.013337,0.103464,0.093086
1155,2280000000.0,3.42772750628e-07,0.000751418992873,0.464039224345,0.999999649437,1.24171165961e-07,-3.43464189828e-06,-0.000837325901501,-0.0295897386968,-1.08718870728e-06,2.84041142464,-0.002153,0.020744,0.075806,-0.013337,0.103464,0.093086
1156,2290000000.0,-1.90466388972e-06,0.000743942218833,0.492824560345,0.999999658658,1.2002289812e-07,-3.3722194151e-06,-0.000826239457024,-0.0299948751926,-1.80244444503e-06,2.87943077087,-0.002153,0.020744,0.075806,-0.013337,0.103464,0.093086
1157,2300000000.0,-1.58860980548e-06,0.00073604576755,0.522096323327,0.999999668389,1.27227738678e-07,-3.31448751467e-06,-0.00081437812121,-0.0305011607707,-1.84059138109e-06,2.92787837982,-0.002153,0.020744,0.075806,-0.013337,0.103464,0.093086
1158,2310000000.0,-5.00711306728e-06,0.000727272010405,0.551726648403,0.999999679173,1.27141370987e-07,-3.25622926128e-06,-0.00080102668994,-0.0308760590851,-1.89781189941e-06,2.96390080452,-0.002153,0.020744,0.075806,-0.013337,0.103464,0.093086
1159,2320000000.0,-5.50456159942e-06,0.000718154828068,0.581809070048,0.999999689966,1.25617614033e-07,-3.19068776999e-06,-0.000787436835469,-0.0313517227769,1.35421748793e-06,3.00933670998,-0.002153,0.020744,0.075806,-0.013337,0.103464,0.093086
1160,2330000000.0,-5.70356576191e-06,0.000708274776109,0.612229113819,0.999999701359,1.24253774936e-07,-3.12618661569e-06,-0.000772833731583,-0.0317017324269,7.53402673359e-07,3.0429315567,-0.002153,0.020744,0.075806,-0.013337,0.103464,0.093086
1161,2340000000.0,-2.72327453388e-06,0.000698432908393,0.643076459972,0.999999712584,1.26027263125e-07,-3.06064757022e-06,-0.000758170940483,-0.032149322331,6.5803527538e-07,3.0858566761,-0.002153,0.020744,0.075806,-0.013337,0.103464,0.093086
1162,2350000000.0,7.73972402612e-07,0.000688056927171,0.674240448554,0.999999724081,1.20237893364e-07,-2.99094158324e-06,-0.000742852567069,-0.0324787907302,1.15394584488e-06,3.11748600006,-0.002153,0.020744,0.075806,-0.013337,0.103464,0.093086
1163,2360000000.0,-3.79430973396e-06,0.000677909818478,0.705812547878,0.999999735299,1.28577630598e-07,-2.93633035214e-06,-0.000727593815459,-0.032901328057,1.38282769013e-06,3.15831851959,-0.002153,0.020744,0.075806,-0.013337,0.103464,0.093086
1164,2370000000.0,-3.85236379685e-06,0.000667381216768,0.737684164154,0.99999974654,1.27945316397e-07,-2.87078931299e-06,-0.000711977396584,-0.0332164131105,1.55448913053e-06,3.18835330009,-0.002153,0.020744,0.075806,-0.013337,0.103464,0.093086
1165,2380000000.0,-3.53693806687e-07,0.000657196040265,0.769946845152,0.999999757246,1.22980103212e-07,-2.80836620825e-06,-0.000696778201681,-0.0336234197021,1.90734863259e-06,3.22743391991,-0.002153,0.020744,0.075806,-0.013337,0.103464,0.093086
1166,2390000000.0,-3.66907885052e-06,0.000646743690595,0.802497480444,0.999999767965,1.1993961746e-07,-2.75426689222e-06,-0.000681221404497,-0.0339200124145,1.53541566261e-06,3.25617790222,-0.002153,0.020744,0.075806,-0.013337,0.103464,0.093086
1167,2400000000.0,-3.26882248913e-06,0.00063667295035,0.835423922496,0.999999777965,1.233573515e-07,-2.69288997212e-06,-0.000666379811366,-0.0343139842153,1.95503230271e-06,3.2937874794,-0.002153,0.020744,0.075806,-0.013337,0.103464,0.093086
1168,2410000000.0,-5.76880748326e-06,0.000626449589618,0.868628822346,0.999999787978,1.31896853828e-07,-2.63463712724e-06,-0.000651180680973,-0.0346019677818,1.04904177034e-06,3.32148957253,-0.002153,0.020744,0.075806,-0.013337,0.103464,0.093086
1169,2420000000.0,-6.19472707797e-07,0.000616874662228,0.902198125215,0.999999797305,1.31607724274e-07,-2.56649567471e-06,-0.000636696754703,-0.0349826812744,6.38008123066e-06,3.35785770416,-0.002153,0.020744,0.075806,-0.013337,0.103464,0.093086
1170,2430000000.0,-2.06568164174e-06,0.000606841989789,0.93603440268,0.99999980646,1.33920311007e-07,-2.51500058346e-06,-0.000622153206264,-0.0352585762739,5.04493709697e-06,3.38472270966,-0.002153,0.020744,0.075806,-0.013337,0.103464,0.093086
1171,2440000000.0,-3.39222821566e-06,0.000597724923868,0.970225467479,0.999999814931,1.35620054853e-07,-2.46038425955e-06,-0.000608384549004,-0.0356274209917,4.93049628814e-06,3.42003655434,-0.002153,0.020744,0.075806,-0.013337,0.103464,0.093086
1172,2450000000.0,-3.62574375856e-06,0.000588340684772,1.0046778646,0.999999823319,1.32612853809e-07,-2.40264417278e-06,-0.000594437025555,-0.0359008125961,4.09126278078e-06,3.44623398781,-0.002153,0.020744,0.075806,-0.013337,0.103464,0.093086
1173,2460000000.0,-7.45476398833e-06,0.000579566927616,1.0394754731,0.999999830959,1.37845699355e-07,-2.34542922467e-06,-0.000581443259379,-0.0362601839006,3.62396235642e-06,3.48065447807,-0.002153,0.020744,0.075806,-0.013337,0.103464,0.093086
1174,2470000000.0,-6.33653348814e-06,0.000570716802031,1.07453063915,0.999999838498,1.37016035573e-07,-2.27676740999e-06,-0.000568330249062,-0.0365299843252,2.7370451785e-06,3.50632572174,-0.002153,0.020744,0.075806,-0.013337,0.103464,0.093086
1175,2480000000.0,-1.10536824138e-06,0.000562438974153,1.10992346707,0.999999845401,1.35490049458e-07,-2.21278667201e-06,-0.000556051686992,-0.0368797965348,2.12669374289e-06,3.53998088837,-0.002153,0.020744,0.075806,-0.013337,0.103464,0.093086
1176,2490000000.0,-2.31082938029e-06,0.000554161029864,1.14556801162,0.999999852153,1.33357523913e-07,-2.16701083267e-06,-0.000543773124836,-0.0371387600899,6.6757200945e-07,3.56524562836,-0.002153,0.020744,0.075806,-0.013337,0.103464,0.093086
1177,2500000000.0,-3.11852282664e-06,0.000546493451111,1.18154064207,0.999999858279,1.35118718048e-07,-2.11759619112e-06,-0.000532388632976,-0.0374833494425,2.03132617504e-06,3.59824538231,-0.002153,0.020744,0.075806,-0.013337,0.103464,0.093086
1178,2510000000.0,-2.75372657654e-06,0.000538787804548,1.21776697585,0.999999864306,1.35527756295e-07,-2.06505990391e-06,-0.000520944551528,-0.037743717432,1.20162962935e-06,3.6232085228,-0.002153,0.020744,0.075806,-0.013337,0.103464,0.093086
1179,2520000000.0,-1.93156862593e-06,0.000531692407087,1.25431567381,0.999999869747,1.33698256244e-07,-2.02032480762e-06,-0.000510394507901,-0.0380799844861,5.91278080053e-07,3.65564751625,-0.002153,0.020744,0.075806,-0.013337,0.103464,0.093086
1180,2530000000.0,8.29436856975e-08,0.000524558941834,1.29111616786,0.999999875106,1.36788552763e-07,-1.97871308971e-06,-0.000499784907195,-0.0383370779455,2.95639039694e-07,3.68040299416,-0.002153,0.020744,0.075806,-0.013337,0.103464,0.093086
1181,2540000000.0,-1.20007868532e-06,0.00051799765788,1.32823326461,0.999999879914,1.40764636891e-07,-1.94230334544e-06,-0.000490069344324,-0.0386688522995,8.48770127293e-07,3.71236872673,-0.002153,0.020744,0.075806,-0.013337,0.103464,0.093086
1182,2550000000.0,2.58333768954e-06,0.000511436373923,1.36559647545,0.999999884657,1.36665239125e-07,-1.9012082989e-06,-0.000480294191901,-0.0389260277152,1.34468075386e-06,3.7370121479,-0.002153,0.020744,0.075806,-0.013337,0.103464,0.093086
1183,2560000000.0,-7.45270995139e-07,0.000505447387699,1.40327624926,0.999999888911,1.37219758889e-07,-1.87207904795e-06,-0.000471353487802,-0.0392524413764,1.2111663632e-06,3.76858043671,-0.002153,0.020744,0.075806,-0.013337,0.103464,0.093086
1184,2570000000.0,9.92559066049e-07,0.000499420100823,1.44120213715,0.999999893113,1.36564188624e-07,-1.83462684256e-06,-0.000462353194144,-0.0395092442632,1.43051147394e-06,3.79307365417,-0.002153,0.020744,0.075806,-0.013337,0.103464,0.093086
1185,2580000000.0,3.28707414354e-06,0.000493926927447,1.47944085299,0.999999896828,1.3649671099e-07,-1.80341681599e-06,-0.000454246970867,-0.0398320630193,3.81469703381e-07,3.82417082787,-0.002153,0.020744,0.075806,-0.013337,0.103464,0.093086
1186,2590000000.0,3.07864121396e-06,0.000488395686261,1.51791988172,0.999999900557,1.37302352321e-07,-1.77584819439e-06,-0.000445961913968,-0.0400823280215,1.68800352141e-06,3.84835290909,-0.002153,0.020744,0.075806,-0.013337,0.103464,0.093086
1187,2600000000.0,3.50635197321e-06,0.000483360257931,1.55670410941,0.999999903879,1.38136833472e-07,-1.7493199731e-06,-0.000438451715906,-0.0404008366168,5.05447359744e-07,3.87892842293,-0.002153,0.020744,0.075806,-0.013337,0.103464,0.093086
1188,2610000000.0,1.4311147396e-06,0.000478248577561,1.59572865,0.999999907143,1.35890378949e-07,-1.722790411e-06,-0.000430941550334,-0.0406503342092,1.14440911059e-06,3.9029250145,-0.002153,0.020744,0.075806,-0.013337,0.103464,0.093086
1189,2620000000.0,3.84624090088e-06,0.000473632826466,1.63505461478,0.999999910099,1.40543902127e-07,-1.69262284633e-06,-0.000424027410008,-0.04096512869,1.16348269241e-06,3.93303585052,-0.002153,0.020744,0.075806,-0.013337,0.103464,0.093086
1190,2630000000.0,-3.62066572279e-08,0.00046894070692,1.67461894548,0.999999913032,1.41794040676e-07,-1.66921571931e-06,-0.000417053680142,-0.041212130338,9.44137524606e-07,3.95690393448,-0.002153,0.020744,0.075806,-0.013337,0.103464,0.093086
1191,2640000000.0,5.91573865449e-07,0.000464706332419,1.71448279313,0.999999915671,1.41295377287e-07,-1.6374855637e-06,-0.000410675975545,-0.0415237173438,1.16348269241e-06,3.98659801483,-0.002153,0.020744,0.075806,-0.013337,0.103464,0.093086
1192,2650000000.0,2.55076140832e-06,0.00046054832637,1.75458508616,0.99999991827,1.37690969737e-07,-1.60523400977e-06,-0.000404298270935,-0.0417709909379,1.40190115827e-06,4.01038408279,-0.002153,0.020744,0.075806,-0.013337,0.103464,0.093086
1193,2660000000.0,1.45079027902e-06,0.000456466688775,1.79498109495,0.999999920615,1.38176604714e-07,-1.58130657801e-06,-0.000398457002064,-0.0420749895275,4.61578338173e-06,4.03970146179,-0.002153,0.020744,0.075806,-0.013337,0.103464,0.093086
1194,2670000000.0,1.72195551329e-06,0.000452690059319,1.83561173463,0.999999922925,1.38259882654e-07,-1.55373794258e-06,-0.00039261576569,-0.0423229113221,1.10626217431e-06,4.06344556808,-0.002153,0.020744,0.075806,-0.013337,0.103464,0.093086
1195,2680000000.0,2.76831711687e-06,0.000448913546279,1.87653422255,0.999999924971,1.38425426233e-07,-1.53137090403e-06,-0.000387370554592,-0.0426243767142,3.85284420101e-06,4.09241247177,-0.002153,0.020744,0.075806,-0.013337,0.103464,0.093086
1196,2690000000.0,1.33159534954e-06,0.00044548034202,1.91769511612,0.999999927035,1.39028215607e-07,-1.50588312275e-06,-0.000382006131923,-0.0428709052503,-2.38418579546e-07,4.11615514755,-0.002153,0.020744,0.075806,-0.013337,0.103464,0.093086
1197,2700000000.0,7.49528645372e-07,0.000442008953545,1.95914022895,0.999999928867,1.38924318771e-07,-1.48091529084e-06,-0.00037717817752,-0.0431695245206,3.60488888829e-06,4.14474439621,-0.002153,0.020744,0.075806,-0.013337,0.103464,0.093086
1198,2710000000.0,1.49886894008e-06,0.00043888087384,2.00082378716,0.999999930721,1.3848619651e-07,-1.45178613031e-06,-0.000372230979039,-0.0434179119766,-6.00814815233e-07,4.16856050491,-0.002153,0.020744,0.075806,-0.013337,0.103464,0.093086
1199,2720000000.0,3.12272895542e-06,0.00043590541463,2.04278965739,0.999999932353,1.42164634176e-07,-1.42525930397e-06,-0.000367820248821,-0.043711271137,3.97682197129e-06,4.19669628143,-0.002153,0.020744,0.075806,-0.013337,0.103464,0.093086
1200,2730000000.0,2.24364096368e-06,0.000432853703384,2.0849958405,0.999999933987,1.46877850993e-07,-1.40497459444e-06,-0.000363349896559,-0.0439597629011,1.61170953472e-06,4.22068977356,-0.002153,0.020744,0.075806,-0.013337,0.103464,0.093086
1201,2740000000.0,6.13302169938e-06,0.000430107116699,2.12747674639,0.999999935452,1.47712465648e-07,-1.38832955171e-06,-0.000359296768503,-0.0442459844053,2.14576721058e-06,4.2482714653,-0.002153,0.020744,0.075806,-0.013337,0.103464,0.093086
1202,2750000000.0,3.66523470774e-06,0.000427360530008,2.17020173993,0.999999936921,1.45735506218e-07,-1.38052601978e-06,-0.000355184050919,-0.0444962307811,1.33514401979e-06,4.27255105972,-0.002153,0.020744,0.075806,-0.013337,0.103464,0.093086
1203,2760000000.0,6.02551045858e-06,0.00042484281585,2.2131957345,0.999999938227,1.43526464158e-07,-1.36596055061e-06,-0.00035148855754,-0.0447784811258,1.89781189786e-06,4.29948997498,-0.002153,0.020744,0.075806,-0.013337,0.103464,0.093086
1204,2770000000.0,5.82324420861e-06,0.000422363285903,2.2564357637,0.99999993954,1.40368118628e-07,-1.34567312521e-06,-0.000347733474632,-0.0450358763337,1.85966484789e-06,4.32407712936,-0.002153,0.020744,0.075806,-0.013337,0.103464,0.093086
1205,2780000000.0,6.71400898966e-06,0.000420036260039,2.29993712521,0.999999940736,1.45351410907e-07,-1.33163034932e-06,-0.000344276404357,-0.0453091077507,8.67843595653e-07,4.35039329529,-0.002153,0.020744,0.075806,-0.013337,0.103464,0.093086
1206,2790000000.0,4.98263774773e-06,0.000417709350582,2.3436902431,0.9999999419,1.43425496479e-07,-1.32070608383e-06,-0.000340878923614,-0.0455663129687,2.12669374289e-06,4.37521505356,-0.002153,0.020744,0.075806,-0.013337,0.103464,0.093086
1207,2800000000.0,4.38402688019e-06,0.000415573129427,2.38770087881,0.999999942972,1.45295260934e-07,-1.31342418658e-06,-0.000337719898494,-0.0458340495825,1.03950503583e-06,4.4010181427,-0.002153,0.020744,0.075806,-0.013337,0.103464,0.093086
1208,2810000000.0,4.99763504536e-06,0.000413513160311,2.43196140337,0.999999944014,1.43367201e-07,-1.30302012397e-06,-0.000334620462902,-0.0460945107043,1.16348269241e-06,4.42596960068,-0.002153,0.020744,0.075806,-0.013337,0.103464,0.093086
1209,2820000000.0,2.96924253007e-06,0.000411529559642,2.47647559154,0.999999944987,1.41569784673e-07,-1.29417658729e-06,-0.000331699828396,-0.046358935535,1.04904174236e-07,4.45139741898,-0.002153,0.020744,0.075806,-0.013337,0.103464,0.093086
1210,2830000000.0,2.17293371207e-06,0.000409622211009,2.52123776131,0.999999945932,1.46401450574e-07,-1.27909346631e-06,-0.000328838815915,-0.046620760113,8.01086399882e-07,4.47638463974,-0.002153,0.020744,0.075806,-0.013337,0.103464,0.093086
1211,2840000000.0,2.54911459763e-06,0.000407791114409,2.56625363443,0.99999994683,1.42904095946e-07,-1.26296732228e-06,-0.000326096982495,-0.0468836687505,8.5830686114e-07,4.50155925751,-0.002153,0.020744,0.075806,-0.013337,0.103464,0.093086
1212,2850000000.0,4.13751450168e-06,0.000406036386263,2.61151939639,0.999999947643,1.42772975054e-07,-1.24736246809e-06,-0.000323593604703,-0.0471433885396,6.77108743297e-07,4.52651929855,-0.002153,0.020744,0.075806,-0.013337,0.103464,0.093086
1213,2860000000.0,3.14350773323e-06,0.000404357910153,2.65703310023,0.99999994845,1.40109878644e-07,-1.23799858431e-06,-0.000321090194402,-0.0474026054144,1.32560728527e-06,4.5515255928,-0.002153,0.020744,0.075806,-0.013337,0.103464,0.093086
1214,2870000000.0,3.32199066122e-06,0.000402755686078,2.7028005074,0.999999949231,1.40199571008e-07,-1.22499455918e-06,-0.000318646406132,-0.0476626381278,8.86917120191e-07,4.57642555237,-0.002153,0.020744,0.075806,-0.013337,0.103464,0.093086
1215,2880000000.0,4.75242195819e-06,0.00040119164623,2.74881398894,0.999999949951,1.44707521077e-07,-1.21199195624e-06,-0.000316381418944,-0.0479216836393,5.43594353086e-07,4.60131597519,-0.002153,0.020744,0.075806,-0.013337,0.103464,0.093086
1216,2890000000.0,7.41493694534e-06,0.000399742042646,2.79507545208,0.999999950665,1.4362738282e-07,-1.19430624029e-06,-0.000314116464272,-0.0481820032001,5.81741345762e-07,4.62614631653,-0.002153,0.020744,0.075806,-0.013337,0.103464,0.093086
1217,2900000000.0,3.6805548902e-06,0.000398330623284,2.84158481736,0.999999951318,1.43455592516e-07,-1.1818223235e-06,-0.000312030278176,-0.0484387725592,1.020431454e-06,4.65094852448,-0.002153,0.020744,0.075806,-0.013337,0.103464,0.093086
1218,2910000000.0,4.95301756587e-06,0.000396957388141,2.88834601846,0.999999951948,1.41717305002e-07,-1.16309614745e-06,-0.000310003746628,-0.0486988201737,6.19888282039e-07,4.67570972443,-0.002153,0.020744,0.075806,-0.013337,0.103464,0.093086
1219,2920000000.0,3.70266756988e-06,0.000395660405044,2.93534943971,0.999999952538,1.40402394655e-07,-1.1459305711e-06,-0.000308096394131,-0.0489557310939,3.91006465428e-07,4.70044088364,-0.002153,0.020744,0.075806,-0.013337,0.103464,0.093086
1220,2930000000.0,7.4790269835e-06,0.000394439673983,2.98260278953,0.999999953105,1.42936855463e-07,-1.12772588967e-06,-0.000306248631156,-0.0492136850953,5.6266782078e-07,4.72513961792,-0.002153,0.020744,0.075806,-0.013337,0.103464,0.093086
1221,2940000000.0,4.89821867689e-06,0.000393257127143,3.03010022701,0.999999953651,1.42425284788e-07,-1.11836280564e-06,-0.000304460490218,-0.049468331039,5.34057619017e-07,4.74981021881,-0.002153,0.020744,0.075806,-0.013337,0.103464,0.093086
1222,2950000000.0,3.54949405335e-06,0.000392112648111,3.07784564609,0.999999954158,1.37579934223e-07,-1.10379694224e-06,-0.000302791560848,-0.0497264452279,-5.72204581495e-08,4.77445220947,-0.002153,0.020744,0.075806,-0.013337,0.103464,0.093086
1223,2960000000.0,3.43285314841e-06,0.000391044537537,3.12583904678,0.999999954644,1.39853037706e-07,-1.08611235539e-06,-0.000301182253507,-0.0499836392701,6.008148139e-07,4.79906892776,-0.002153,0.020744,0.075806,-0.013337,0.103464,0.093086
1224,2970000000.0,4.58802526992e-06,0.000390014611177,3.17407661457,0.999999955092,1.37658790145e-07,-1.06842643915e-06,-0.000299692125223,-0.0502399392426,2.86102277425e-07,4.82366085052,-0.002153,0.020744,0.075806,-0.013337,0.103464,0.093086
1225,2980000000.0,3.18065537641e-06,0.000389022752639,3.222560217,0.999999955537,1.35938711676e-07,-1.05282126506e-06,-0.000298202029448,-0.0504951141775,1.01089471993e-06,4.8482298851,-0.002153,0.020744,0.075806,-0.013337,0.103464,0.093086
1226,2990000000.0,3.04509851645e-06,0.000388069078326,3.27128798654,0.999999955963,1.33655583878e-07,-1.03617563979e-06,-0.00029677149069,-0.0507516041398,6.77108743297e-07,4.87277650833,-0.002153,0.020744,0.075806,-0.013337,0.103464,0.093086
1227,3000000000.0,3.2713496978e-07,0.000387153588235,3.32026369795,0.999999956333,1.35799854473e-07,-1.01953135262e-06,-0.000295519818036,-0.051007155329,7.53402673137e-07,4.89730167389,-0.002153,0.020744,0.075806,-0.013337,0.103464,0.093086
1228,3010000000.0,-1.11901553623e-06,0.000386314350184,3.36948357648,0.999999956738,1.36883120783e-07,-9.95084502964e-07,-0.000294148901311,-0.0512642338872,8.29696659377e-07,4.92180633545,-0.002153,0.020744,0.075806,-0.013337,0.103464,0.093086
1229,3020000000.0,2.5211373611e-06,0.000385475112129,3.41894766185,0.999999957088,1.37343201811e-07,-9.69597195144e-07,-0.000292956818187,-0.0515203401446,2.47955312282e-07,4.94629192352,-0.002153,0.020744,0.075806,-0.013337,0.103464,0.093086
1230,3030000000.0,3.6186129222e-06,0.000384712126106,3.46865587461,0.999999957436,1.39332091198e-07,-9.53473006549e-07,-0.00029176470255,-0.0517729334533,6.96182211879e-07,4.97075843811,-0.002153,0.020744,0.075806,-0.013337,0.103464,0.093086
1231,3040000000.0,5.96803683095e-06,0.000383949256509,3.51861016172,0.999999957749,1.37386834131e-07,-9.39948429313e-07,-0.000290691830989,-0.0520267635584,-3.33786005502e-07,4.99520730972,-0.002153,0.020744,0.075806,-0.013337,0.103464,0.093086
1232,3050000000.0,5.75491874599e-06,0.000383224454705,3.56881048346,0.99999995806,1.4033038831e-07,-9.27985717936e-07,-0.000289618959423,-0.0522806234658,3.05175773541e-07,5.01963806152,-0.002153,0.020744,0.075806,-0.013337,0.103464,0.093086
1233,3060000000.0,6.83347834496e-06,0.000311584444713,3.61925306507,0.999999958405,1.43677832298e-07,-9.18623842439e-07,-0.000288426843783,-0.0525355935097,0.0070839212276,5.04415416718,-0.002153,0.020744,0.075806,-0.013337,0.103464,0.093086
1234,3070000000.0,5.38922527937e-06,0.000252647325404,3.66993786682,0.999999958731,1.39872933125e-07,-9.134211017e-07,-0.000287294382694,-0.0527861267328,0.00582255329937,5.06832122803,-0.002153,0.020744,0.075806,-0.013337,0.103464,0.093086
1235,3080000000.0,8.97168161629e-06,0.000204467796717,3.72087259715,0.999999958731,1.39872933125e-07,-9.134211017e-07,-0.000287294382694,-0.0530448667705,0.00475077610463,5.093105793,-0.002153,0.020744,0.075806,-0.013337,0.103464,0.093086
1236,3090000000.0,6.29629356297e-06,0.00016544340178,3.7720418789,0.999999959294,1.36211236679e-07,-9.10298891821e-07,-0.000285327408148,-0.0532884784043,0.0038384150248,5.11677408218,-0.002153,0.020744,0.075806,-0.013337,0.103464,0.093086
1237,3100000000.0,8.62775026178e-06,0.000134277273901,3.82346299648,0.999999959294,1.36211236679e-07,-9.10298891821e-07,-0.000285327408148,-0.0535521730781,0.00306388852186,5.14194011688,-0.002153,0.020744,0.075806,-0.013337,0.103464,0.093086
1238,3110000000.0,8.53571761184e-06,0.000109481741674,3.87511679797,0.999999959785,1.41261090159e-07,-9.36307519128e-07,-0.000283598889226,-0.0537916123867,0.0024109268561,5.16510105133,-0.002153,0.020744,0.075806,-0.013337,0.103464,0.093086
1239,3120000000.0,3.43731457519e-06,8.92257085106e-05,3.92688499444,0.999999960492,1.42903970268e-07,-8.02629441965e-07,-0.000281095478907,-0.0539116188884,0.00185785291251,5.17662143707,-0.002153,0.020744,0.075806,-0.013337,0.103464,0.093086
1240,3130000000.0,8.76928466198e-06,7.22121912951e-05,3.97875057961,0.999999961772,1.38736998168e-07,-8.60364130661e-07,-0.000276505914955,-0.0540186911821,0.0013946914114,5.18667459488,-0.002153,0.020744,0.075806,-0.013337,0.103464,0.093086
1241,3140000000.0,7.94178497188e-06,5.31768891925e-05,4.03010871837,0.999999965374,1.43202425029e-07,-8.86891041052e-07,-0.000263154496055,-0.0534962974489,0.00100644107442,5.13665628433,-0.002153,0.020744,0.075806,-0.013337,0.103464,0.093086
1242,3150000000.0,9.3991963297e-06,3.85284656623e-05,4.08161375473,0.999999968366,1.42589385854e-07,-9.05094431458e-07,-0.000251531579789,-0.0536498054862,0.000683155027218,5.15133428574,-0.002153,0.020744,0.075806,-0.013337,0.103464,0.093086
1243,3160000000.0,9.58479464686e-06,2.45284754783e-05,4.13287462399,0.999999971932,1.38892842227e-07,-8.87406430616e-07,-0.000236928455634,-0.0533948726952,0.000414733891374,5.12694215775,-0.002153,0.020744,0.075806,-0.013337,0.103464,0.093086
1244,3170000000.0,7.94284363081e-06,1.46866077557e-05,4.1843109598,0.999999974685,1.38721129084e-07,-8.81683108633e-07,-0.000225007526636,-0.053574450314,0.00019308089395,5.14425182343,-0.002153,0.020744,0.075806,-0.013337,0.103464,0.093086
1245,3180000000.0,9.1812692844e-06,4.5775668589e-06,4.23547074506,0.99999997789,1.3833460466e-07,-8.78560102058e-07,-0.000210285174566,-0.053290117532,1.26838676797e-05,5.11694002151,-0.002153,0.020744,0.075806,-0.013337,0.103464,0.093086
1246,3190000000.0,1.19497486395e-05,-1.41141936538e-06,4.28684990324,0.999999980124,1.38315843945e-07,-8.83239932803e-07,-0.000199377527558,-0.0535126589239,-0.000133819572512,5.13839054108,-0.002153,0.020744,0.075806,-0.013337,0.103464,0.093086
1247,3200000000.0,9.59219526919e-06,-7.93463550153e-06,4.33798866907,0.999999982719,1.39000105592e-07,-8.72835231258e-07,-0.000185906880607,-0.0532653704286,-0.00025137900957,5.11476993561,-0.002153,0.020744,0.075806,-0.013337,0.103464,0.093086
1248,3210000000.0,1.23408099597e-05,-1.06812221929e-05,4.3893697345,0.999999984383,1.43488485871e-07,-8.68153415268e-07,-0.000176727768758,-0.0535140447319,-0.00034353256342,5.13856506348,-0.002153,0.020744,0.075806,-0.013337,0.103464,0.093086
1249,3220000000.0,1.34997769479e-05,-1.43051147532e-05,4.44053714874,0.99999998638,1.48899804431e-07,-8.66592191229e-07,-0.00016504524649,-0.0532919950783,-0.000416555383709,5.11737203598,-0.002153,0.020744,0.075806,-0.013337,0.103464,0.093086
1250,3230000000.0,1.18975552681e-05,-1.43814832008e-05,4.49196967006,0.999999987516,1.47228145175e-07,-8.8063489595e-07,-0.000158011910313,-0.0535646267235,-0.000471334438771,5.14368963242,-0.002153,0.020744,0.075806,-0.013337,0.103464,0.093086
1251,3240000000.0,8.447445218e-06,-1.57165341115e-05,4.54321333438,0.999999988986,1.49152409423e-07,-8.76992732046e-07,-0.000148415557936,-0.0533692091703,-0.000510110869073,5.12499666214,-0.002153,0.020744,0.075806,-0.013337,0.103464,0.093086
1252,3250000000.0,5.77253153011e-06,-1.37329334393e-05,4.59474884694,0.999999989725,1.46267678192e-07,-8.7803186205e-07,-0.000143349163846,-0.0536686629057,-0.000537967658602,5.15357065201,-0.002153,0.020744,0.075806,-0.013337,0.103464,0.093086
1253,3260000000.0,8.64033421522e-06,-1.32751883974e-05,4.6461184689,0.99999999079,1.42453406182e-07,-8.74389190886e-07,-0.000135719769811,-0.0534989647567,-0.000555810926017,5.13717985153,-0.002153,0.020744,0.075806,-0.013337,0.103464,0.093086
1254,3270000000.0,8.2900608902e-06,-9.76561569033e-06,4.69779706458,0.999999991213,1.42308831275e-07,-8.82190952234e-07,-0.000132560720156,-0.053817588836,-0.000564889924136,5.16785526276,-0.002153,0.020744,0.075806,-0.013337,0.103464,0.093086
1255,3280000000.0,9.44950225801e-06,-7.97270331532e-06,4.74933070962,0.999999991971,1.41838144119e-07,-8.73867685325e-07,-0.000126719467118,-0.0536693930626,-0.00056850432884,5.15359544754,-0.002153,0.020744,0.075806,-0.013337,0.103464,0.093086
1256,3290000000.0,1.10067113042e-05,-3.28070018085e-06,4.80119244057,0.999999992143,1.40903612611e-07,-8.75947968493e-07,-0.00012534855847,-0.0540092997253,-0.000565633759835,5.18618345261,-0.002153,0.020744,0.075806,-0.013337,0.103464,0.093086
1257,3300000000.0,1.00406333132e-05,-4.95929270983e-07,4.85293016085,0.999999992658,1.44866772911e-07,-8.76988159537e-07,-0.000121176234863,-0.0538805946708,-0.000557317747735,5.17388296127,-0.002153,0.020744,0.075806,-0.013337,0.103464,0.093086
1258,3310000000.0,9.25381168315e-06,4.99724410474e-06,4.90501694673,0.999999992658,1.44866772911e-07,-8.76988159537e-07,-0.000121176234863,-0.0542384386063,-0.000545320508536,5.20820426941,-0.002153,0.020744,0.075806,-0.013337,0.103464,0.093086
1259,3320000000.0,9.6191407124e-06,8.50670039654e-06,4.95699311238,0.999999992972,1.39536998955e-07,-8.76467000033e-07,-0.000118553629136,-0.054128985852,-0.000532455451322,5.19768428802,-0.002153,0.020744,0.075806,-0.013337,0.103464,0.093086
1260,3330000000.0,1.00246734576e-05,1.45721714873e-05,5.00933169436,0.999999992809,1.43022874322e-07,-8.81669095343e-07,-0.000119924537782,-0.0545025542378,-0.000515718420502,5.23356962204,-0.002153,0.020744,0.075806,-0.013337,0.103464,0.093086
1261,3340000000.0,7.54935514635e-06,1.85013050213e-05,5.06158059607,0.999999993,1.43277262166e-07,-8.8947112542e-07,-0.000118315214122,-0.0544096492231,-0.000498208974023,5.22466421127,-0.002153,0.020744,0.075806,-0.013337,0.103464,0.093086
1262,3350000000.0,8.78967824747e-06,2.48717842624e-05,5.11420530455,0.999999992708,1.37994651928e-07,-8.95712620408e-07,-0.000120759002506,-0.0547992438078,-0.000478334404762,5.26194858551,-0.002153,0.020744,0.075806,-0.013337,0.103464,0.093086
1263,3360000000.0,7.02996230473e-06,2.90679745305e-05,5.16675177625,0.999999992708,1.37994651928e-07,-8.95712620408e-07,-0.000120759002506,-0.0547211542726,-0.000459909439088,5.25449800491,-0.002153,0.020744,0.075806,-0.013337,0.103464,0.093086
1264,3370000000.0,8.84683510094e-06,3.56674427167e-05,5.21968740542,0.999999992388,1.3855926817e-07,-8.87910821534e-07,-0.000123381608237,-0.0551234558225,-0.000439023948275,5.2930264473,-0.002153,0.020744,0.075806,-0.013337,0.103464,0.093086
1265,3380000000.0,7.50475151534e-06,3.99779528344e-05,5.27256005578,0.999999992388,1.3855926817e-07,-8.87910821534e-07,-0.000123381608237,-0.0550586916506,-0.000418720243033,5.28688335419,-0.002153,0.020744,0.075806,-0.013337,0.103464,0.093086
1266,3390000000.0,9.65979801038e-06,4.6615605239e-05,5.32582949259,0.999999991872,1.34257475803e-07,-9.03515300688e-07,-0.000127494326057,-0.0554720200598,-0.0003991794365,5.32651233673,-0.002153,0.020744,0.075806,-0.013337,0.103464,0.093086
1267,3400000000.0,1.23313258271e-05,5.09262317756e-05,5.37904934103,0.999999991872,1.34257475803e-07,-9.03515300688e-07,-0.000127494326057,-0.0554204843938,-0.000379114149838,5.32154226303,-0.002153,0.020744,0.075806,-0.013337,0.103464,0.093086
1268,3410000000.0,1.0751814969e-05,5.75255835429e-05,5.43267733993,0.99999999119,1.34954726116e-07,-9.05596690248e-07,-0.000132739537511,-0.0558414384723,-0.000359497062164,5.36213970184,-0.002153,0.020744,0.075806,-0.013337,0.103464,0.093086
1269,3420000000.0,9.60932676719e-06,6.17217738217e-05,5.48626337944,0.999999991031,1.33530037028e-07,-9.18080227064e-07,-0.000133931628807,-0.055800717324,-0.000340089784005,5.35821390152,-0.002153,0.020744,0.075806,-0.013337,0.103464,0.093086
1270,3430000000.0,7.93096694451e-06,6.82068057358e-05,5.54026714538,0.999999990364,1.36383559057e-07,-9.31084989886e-07,-0.00013881920555,-0.0562326908112,-0.000322360981955,5.39966344833,-0.002153,0.020744,0.075806,-0.013337,0.103464,0.093086
1271,3440000000.0,6.59030643391e-06,7.232662756e-05,5.59423848815,0.999999990148,1.39069281979e-07,-9.26404239932e-07,-0.000140368923419,-0.0562020987272,-0.000304555898766,5.39667224884,-0.002153,0.020744,0.075806,-0.013337,0.103464,0.093086
1272,3450000000.0,1.22831610412e-05,7.86208547616e-05,5.64863335854,0.999999989424,1.3668745974e-07,-9.35767271504e-07,-0.000145435317515,-0.0566422976553,-0.00028616905911,5.43886089325,-0.002153,0.020744,0.075806,-0.013337,0.103464,0.093086
1273,3460000000.0,1.43999012678e-05,8.25499882957e-05,5.70300530226,0.999999989153,1.35896909281e-07,-9.49291271479e-07,-0.000147283064301,-0.0566173680127,-0.000269670475974,5.43669891357,-0.002153,0.020744,0.075806,-0.013337,0.103464,0.093086
1274,3470000000.0,1.20470914879e-05,8.86153429711e-05,5.75780637614,0.999999988367,1.40907603474e-07,-9.72179285963e-07,-0.000152528275734,-0.0570615231991,-0.000254631042481,5.4795293808,-0.002153,0.020744,0.075806,-0.013337,0.103464,0.093086
1275,3480000000.0,1.36478247299e-05,9.23537882045e-05,5.81259413904,0.999999988065,1.4106288615e-07,-9.79981815807e-07,-0.000154495234086,-0.057047445327,-0.000238590233494,5.47810983658,-0.002153,0.020744,0.075806,-0.013337,0.103464,0.093086
1276,3490000000.0,1.45537690202e-05,9.81902703607e-05,5.86781488632,0.999999987231,1.38669817296e-07,-1.00963065114e-06,-0.000159800035048,-0.0574978441,-0.000223932263908,5.52149152756,-0.002153,0.020744,0.075806,-0.013337,0.103464,0.093086
1277,3500000000.0,1.55590366333e-05,0.00010162347462,5.92302609738,0.999999986925,1.40033716289e-07,-1.03355797232e-06,-0.000161707387611,-0.0574891269207,-0.000210237500142,5.52072668076,-0.002153,0.020744,0.075806,-0.013337,0.103464,0.093086
1278,3510000000.0,1.95846823061e-05,0.000107193016447,5.97867986878,0.999999986023,1.42176157125e-07,-1.06736875632e-06,-0.000167191022167,-0.057944573462,-0.000196933746339,5.56457710266,-0.002153,0.020744,0.075806,-0.013337,0.103464,0.093086
1279,3520000000.0,1.98554316029e-05,0.000110435415991,6.03432787871,0.999999985682,1.45545334229e-07,-1.09129645054e-06,-0.000169217570037,-0.0579406581819,-0.000185699464056,5.56438827515,-0.002153,0.020744,0.075806,-0.013337,0.103464,0.093086
1280,3530000000.0,1.92923392675e-05,0.000115737901069,6.09042222375,0.999999984781,1.46287083003e-07,-1.13603012208e-06,-0.000174462781453,-0.0584000423551,-0.000173845284736,5.60863018036,-0.002153,0.020744,0.075806,-0.013337,0.103464,0.093086
1281,3540000000.0,2.25437372876e-05,0.000118675176058,6.14651660852,0.999999984436,1.46850448968e-07,-1.17452150655e-06,-0.000176429739792,-0.0584033727646,-0.000161781310454,5.60895061493,-0.002153,0.020744,0.075806,-0.013337,0.103464,0.093086
1282,3550000000.0,2.49215643464e-05,0.000123710604388,6.20306114288,0.999999983496,1.51120248038e-07,-1.21821553373e-06,-0.000181674951197,-0.0588667280972,-0.000151605607244,5.65351438522,-0.002153,0.020744,0.075806,-0.013337,0.103464,0.093086
1283,3560000000.0,2.72795267335e-05,0.000126419006847,6.25960758448,0.999999983148,1.50170829438e-07,-1.24266263163e-06,-0.000183582287499,-0.0588756389916,-0.000142087927089,5.65428447723,-0.002153,0.020744,0.075806,-0.013337,0.103464,0.093086
1284,3570000000.0,2.87440534947e-05,0.000131149310622,6.31660608293,0.999999982205,1.51594632458e-07,-1.28635614188e-06,-0.00018864868155,-0.0593403056264,-0.000133190158523,5.69911670685,-0.002153,0.020744,0.075806,-0.013337,0.103464,0.093086
1285,3580000000.0,3.01092568975e-05,0.000133628840555,6.3736141176,0.999999981866,1.53437388406e-07,-1.33160969262e-06,-0.000190436822531,-0.0593514628708,-0.000125141144965,5.70028162003,-0.002153,0.020744,0.075806,-0.013337,0.103464,0.093086
1286,3590000000.0,3.4395515037e-05,0.000138053903353,6.43107424884,0.999999980923,1.52894744143e-07,-1.38726623528e-06,-0.000195324415481,-0.0598186925054,-0.000116157527374,5.74532556534,-0.002153,0.020744,0.075806,-0.013337,0.103464,0.093086
1287,3600000000.0,3.47282301334e-05,0.000140304560777,6.48854769106,0.999999980596,1.60001451033e-07,-1.42731933284e-06,-0.000196993344887,-0.0598326660693,-0.000109624859761,5.74684000015,-0.002153,0.020744,0.075806,-0.013337,0.103464,0.093086
1288,3610000000.0,3.03331545553e-05,0.000144500751041,6.54647505764,0.999999979657,1.60954821138e-07,-1.49597989213e-06,-0.000201702104221,-0.0603005774319,-0.000101470941445,5.79205608368,-0.002153,0.020744,0.075806,-0.013337,0.103464,0.093086
1289,3620000000.0,3.34081423787e-05,0.00014648435172,6.60441776164,0.999999979331,1.60388990533e-07,-1.55371653121e-06,-0.000203311427849,-0.0603212155402,-9.43756094784e-05,5.79387998581,-0.002153,0.020744,0.075806,-0.013337,0.103464,0.093086
1290,3630000000.0,3.55301005612e-05,0.000150413485247,6.66281824421,0.9999999784,1.64334498398e-07,-1.61613590749e-06,-0.000207841386079,-0.0607910566032,-8.87775386227e-05,5.83922243118,-0.002153,0.020744,0.075806,-0.013337,0.103464,0.093086
1291,3640000000.0,3.749314142e-05,0.000152168213386,6.72123398475,0.999999978114,1.68358554486e-07,-1.66503094334e-06,-0.000209212286567,-0.0608122758567,-8.29219789011e-05,5.84132385254,-0.002153,0.020744,0.075806,-0.013337,0.103464,0.093086
1292,3650000000.0,3.85031526235e-05,0.000155868474398,6.78010750386,0.999999977194,1.70051817294e-07,-1.73577224444e-06,-0.000213563427443,-0.0612832345068,-7.71808627182e-05,5.88676261902,-0.002153,0.020744,0.075806,-0.013337,0.103464,0.093086
1293,3660000000.0,4.30892782077e-05,0.00015739433001,6.83900394964,0.999999976938,1.71514439373e-07,-1.80599282296e-06,-0.000214755526835,-0.0613072104752,-7.18879673527e-05,5.88910388947,-0.002153,0.020744,0.075806,-0.013337,0.103464,0.093086
1294,3670000000.0,4.29277484315e-05,0.000160903902724,6.89835622702,0.999999976034,1.70358017415e-07,-1.88609616691e-06,-0.00021892785036,-0.0617772229016,-6.7148204836e-05,5.93460702896,-0.002153,0.020744,0.075806,-0.013337,0.103464,0.093086
1295,3680000000.0,4.63224683713e-05,0.000162200885825,6.95773333832,0.999999975811,1.73135558168e-07,-1.94487374233e-06,-0.000219941132401,-0.0618037767708,-6.22081715851e-05,5.93716907501,-0.002153,0.020744,0.075806,-0.013337,0.103464,0.093086
1296,3690000000.0,4.88038879851e-05,0.000165405217558,7.0175644137,0.999999974925,1.81099858831e-07,-2.03382162467e-06,-0.000223934638553,-0.0622745119035,-5.84316258037e-05,5.98271083832,-0.002153,0.020744,0.075806,-0.013337,0.103464,0.093086
1297,3700000000.0,5.0987337616e-05,0.000166511512358,7.07742409776,0.999999974925,1.81099858831e-07,-2.03382162467e-06,-0.000223934638553,-0.0623021163046,-5.47695162831e-05,5.98546552658,-0.002153,0.020744,0.075806,-0.013337,0.103464,0.093086
1298,3710000000.0,5.22177575846e-05,0.00016960140783,7.13774156039,0.999999973872,1.79743036011e-07,-2.21639431197e-06,-0.00022858379206,-0.0627733767033,-5.16319269095e-05,6.03102397919,-0.002153,0.020744,0.075806,-0.013337,0.103464,0.093086
1299,3720000000.0,5.31899368852e-05,0.000170516897924,7.19808381721,0.999999973872,1.79743036011e-07,-2.21639431197e-06,-0.00022858379206,-0.0628033950925,-4.74834414494e-05,6.03395414352,-0.002153,0.020744,0.075806,-0.013337,0.103464,0.093086
1300,3730000000.0,5.32090865732e-05,0.000173416105103,7.25888385261,0.999999972896,1.88548032687e-07,-2.39324764278e-06,-0.000232815721314,-0.0632754042745,-4.42123418916e-05,6.0795083046,-0.002153,0.020744,0.075806,-0.013337,0.103464,0.093086
1301,3740000000.0,5.67248919339e-05,0.000174179091115,7.31971444365,0.999999972896,1.88548032687e-07,-2.39324764278e-06,-0.000232815721314,-0.063307672739,-4.13799280081e-05,6.08259391785,-0.002153,0.020744,0.075806,-0.013337,0.103464,0.093086
1302,3750000000.0,5.54731772979e-05,0.000176849309355,7.38100277355,0.999999971986,1.96696675892e-07,-2.59766869787e-06,-0.000236690032116,-0.0637767985463,-3.77941105407e-05,6.12812662125,-0.002153,0.020744,0.075806,-0.013337,0.103464,0.093086
1303,3760000000.0,5.77379830204e-05,0.000177421490662,7.44231975185,0.999999971986,1.96696675892e-07,-2.59766869787e-06,-0.000236690032116,-0.0638084709644,-3.53145587737e-05,6.13135433197,-0.002153,0.020744,0.075806,-0.013337,0.103464,0.093086
1304,3770000000.0,5.90298944445e-05,0.000179977389053,7.50409641596,0.999999971089,2.01169488179e-07,-2.80833069016e-06,-0.0002404451151,-0.064278408885,-3.46279121013e-05,6.17685127258,-0.002153,0.020744,0.075806,-0.013337,0.103464,0.093086
1305,3780000000.0,6.00437005147e-05,0.000180473318327,7.56589978151,0.999999971089,2.01169488179e-07,-2.80833069016e-06,-0.0002404451151,-0.0643123015761,-3.25107575927e-05,6.18020868301,-0.002153,0.020744,0.075806,-0.013337,0.103464,0.093086
1306,3790000000.0,6.00846122794e-05,0.000182838412002,7.62816283288,0.999999970324,2.01115779641e-07,-3.05592204181e-06,-0.000243604172767,-0.0647820904851,-2.93064113084e-05,6.22565460205,-0.002153,0.020744,0.075806,-0.013337,0.103464,0.093086
1307,3800000000.0,5.97878247248e-05,0.000183181720779,7.69045830742,0.999999970324,2.01115779641e-07,-3.05592204181e-06,-0.000243604172767,-0.0648191794753,-2.68459316444e-05,6.22912597656,-0.002153,0.020744,0.075806,-0.013337,0.103464,0.093086
1308,3810000000.0,6.23723625566e-05,0.000185432378199,7.75320969302,0.999999969549,1.99302391979e-07,-3.27490478436e-06,-0.00024676321419,-0.065289311111,-2.49576569344e-05,6.27451229095,-0.002153,0.020744,0.075806,-0.013337,0.103464,0.093086
1309,3820000000.0,6.08047106851e-05,0.000185584998686,7.81599346206,0.999999969549,1.99302391979e-07,-3.27490478436e-06,-0.00024676321419,-0.0653262585402,-2.24781033475e-05,6.27809333801,-0.002153,0.020744,0.075806,-0.013337,0.103464,0.093086
1310,3830000000.0,6.21183842071e-05,0.000187721219842,7.87923314215,0.999999968867,2.03751496564e-07,-3.50949345351e-06,-0.000249505031362,-0.0657960996032,-2.20108031508e-05,6.32340669632,-0.002153,0.020744,0.075806,-0.013337,0.103464,0.093086
1311,3840000000.0,6.30744937311e-05,0.000187759404071,7.94250715266,0.999999968867,2.03751496564e-07,-3.50949345351e-06,-0.000249505031362,-0.0658432543278,-1.93023679467e-05,6.32708597183,-0.002153,0.020744,0.075806,-0.013337,0.103464,0.093086
1312,3850000000.0,6.3127235272e-05,0.000189743004743,8.00623417362,0.999999968254,1.82050965525e-07,-3.61351819783e-06,-0.000251948819739,-0.0663225129247,-1.88159938275e-05,6.37232112885,-0.002153,0.020744,0.075806,-0.013337,0.103464,0.093086
1313,3860000000.0,6.27826834716e-05,0.000189743004739,8.0699993395,0.999999968254,1.82050965525e-07,-3.61351819783e-06,-0.000251948819739,-0.0663616508245,-1.72042837234e-05,6.37609100342,-0.002153,0.020744,0.075806,-0.013337,0.103464,0.093086
1314,3870000000.0,6.53492540792e-05,0.000191574101333,8.13421755556,0.999999967681,1.6793120422e-07,-3.69777908765e-06,-0.000254213790747,-0.0668310448527,-1.59358969558e-05,6.42124080658,-0.002153,0.020744,0.075806,-0.013337,0.103464,0.093086
1315,3880000000.0,6.37239056402e-05,0.000191459665075,8.19847196955,0.999999967681,1.6793120422e-07,-3.69777908765e-06,-0.000254213790747,-0.0668700709939,-1.52587890634e-05,6.42509269714,-0.002153,0.020744,0.075806,-0.013337,0.103464,0.093086
1316,3890000000.0,6.50295442668e-05,0.000193252577443,8.26317752649,0.999999967179,1.66397153889e-07,-3.7685192289e-06,-0.000256180749053,-0.0673386156559,-1.4019012271e-05,6.47014760971,-0.002153,0.020744,0.075806,-0.013337,0.103464,0.093086
1317,3900000000.0,6.21134668464e-05,0.000193023704924,8.32792214222,0.999999967179,1.66397153889e-07,-3.7685192289e-06,-0.000256180749053,-0.0673789232969,-1.2598037757e-05,6.47407960892,-0.002153,0.020744,0.075806,-0.013337,0.103464,0.093086
1318,3910000000.0,6.21383088202e-05,0.000194663996812,8.39311694728,0.999999966688,1.66430978332e-07,-3.8527836223e-06,-0.000258088101568,-0.0678470358253,-1.21212005992e-05,6.51903533936,-0.002153,0.020744,0.075806,-0.013337,0.103464,0.093086
1319,3920000000.0,6.17459928165e-05,0.000194358755831,8.45835180449,0.999999966688,1.66430978332e-07,-3.8527836223e-06,-0.000258088101568,-0.0678891912103,-1.18446350834e-05,6.52304172516,-0.002153,0.020744,0.075806,-0.013337,0.103464,0.093086
1320,3930000000.0,6.04999704734e-05,0.000195960979902,8.52403490404,0.999999966317,1.59434539182e-07,-3.91728046661e-06,-0.000259518607853,-0.0683552995324,-1.10530854744e-05,6.56789493561,-0.002153,0.020744,0.075806,-0.013337,0.103464,0.093086
1321,3940000000.0,5.88268578099e-05,0.000195617671121,8.58975900936,0.999999966317,1.59434539182e-07,-3.91728046661e-06,-0.000259518607853,-0.0683981254697,-1.00135803232e-05,6.57196807861,-0.002153,0.020744,0.075806,-0.013337,0.103464,0.093086
1322,3950000000.0,6.01244615339e-05,0.000197067274708,8.65593044315,0.999999965945,1.5766497613e-07,-3.98541969476e-06,-0.000260949114117,-0.0688639879227,-8.99314818614e-06,6.61671209335,-0.002153,0.020744,0.075806,-0.013337,0.103464,0.093086
1323,3960000000.0,5.71804845748e-05,0.000196647597477,8.72214284297,0.999999965945,1.5766497613e-07,-3.98541969476e-06,-0.000260949114117,-0.0689066573977,-8.36372328328e-06,6.62085199356,-0.002153,0.020744,0.075806,-0.013337,0.103464,0.093086
1324,3970000000.0,5.72072239748e-05,0.000198059016835,8.78880257125,0.999999965602,1.46590569183e-07,-4.03639155561e-06,-0.000262260425112,-0.0693719983101,-8.11576865178e-06,6.66548395157,-0.002153,0.020744,0.075806,-0.013337,0.103464,0.093086
1325,3980000000.0,5.68068730615e-05,0.000197563087568,8.85550330529,0.999999965602,1.46590569183e-07,-4.03639155561e-06,-0.000262260425112,-0.069415718317,-7.98225392007e-06,6.66968679428,-0.002153,0.020744,0.075806,-0.013337,0.103464,0.093086
1326,3990000000.0,5.55726805089e-05,0.000198936439119,8.92265037445,0.999999965319,1.49908516212e-07,-4.08944773994e-06,-0.000263333296663,-0.0698788687587,-6.94274876967e-06,6.71420526505,-0.002153,0.020744,0.075806,-0.013337,0.103464,0.093086
1327,4000000000.0,5.39213299362e-05,0.000198402325626,8.98983749575,0.999999965586,1.47484529922e-07,-4.10713200782e-06,-0.00026232003088,-0.0699230805039,-7.18116734832e-06,6.71846580505,-0.002153,0.020744,0.075806,-0.013337,0.103464,0.093086
1328,4010000000.0,5.14262054025e-05,0.000199699425135,9.05747190577,0.999999965099,1.44328260676e-07,-4.12793738425e-06,-0.000264167761379,-0.0703859850764,-6.11305222309e-06,6.7628660202,-0.002153,0.020744,0.075806,-0.013337,0.103464,0.093086
1329,4020000000.0,5.23284132328e-05,0.000199089059603,9.12514640768,0.999999965351,1.43630767502e-07,-4.13938033544e-06,-0.000263214101372,-0.0704320296645,-5.01632666872e-06,6.76718378067,-0.002153,0.020744,0.075806,-0.013337,0.103464,0.093086
1330,4030000000.0,4.85922213755e-05,0.000200309674252,9.19326625133,0.999999964878,1.39678740019e-07,-4.16018548283e-06,-0.000265002226091,-0.0708925575018,-5.39779648667e-06,6.81146240234,-0.002153,0.020744,0.075806,-0.013337,0.103464,0.093086
1331,4040000000.0,4.82434295606e-05,0.000199661240909,9.26142714049,0.999999965162,1.35652580335e-07,-4.16954694865e-06,-0.000263929354534,-0.070937782526,-4.73022464709e-06,6.81583738327,-0.002153,0.020744,0.075806,-0.013337,0.103464,0.093086
1332,4050000000.0,4.70707284421e-05,0.000200843787752,9.33003341113,0.99999996472,1.37992200222e-07,-4.17735001979e-06,-0.000265598283919,-0.0713995918632,-4.79698155775e-06,6.85999441147,-0.002153,0.020744,0.075806,-0.013337,0.103464,0.093086
1333,4060000000.0,4.54908016536e-05,0.000200157170188,9.39867878029,0.999999965004,1.3542068561e-07,-4.1778693437e-06,-0.000264525396103,-0.0714463442564,-5.33103912126e-06,6.8644194603,-0.002153,0.020744,0.075806,-0.013337,0.103464,0.093086
1334,4070000000.0,4.30968978833e-05,0.000201301532805,9.46776857731,0.999999964562,1.36483934043e-07,-4.1804705902e-06,-0.000266194325493,-0.0719059482217,-5.25474524782e-06,6.90845298767,-0.002153,0.020744,0.075806,-0.013337,0.103464,0.093086
1335,4080000000.0,4.02659714496e-05,0.000200576731,9.53690033373,0.999999964862,1.32191654845e-07,-4.16902603245e-06,-0.000265061831903,-0.0719538033009,-4.66346728123e-06,6.91293096542,-0.002153,0.020744,0.075806,-0.013337,0.103464,0.093086
1336,4090000000.0,3.66508650274e-05,0.000201683025796,9.60647365713,0.999999964435,1.3125602738e-07,-4.15758272138e-06,-0.000266671155522,-0.0724125131965,-4.06265235231e-06,6.95683765411,-0.002153,0.020744,0.075806,-0.013337,0.103464,0.093086
1337,4100000000.0,3.64132263257e-05,0.000200958224013,9.67608897966,0.999999964736,1.24999521622e-07,-4.13729511989e-06,-0.000265538678196,-0.072460912168,-3.55720521927e-06,6.96136331558,-0.002153,0.020744,0.075806,-0.013337,0.103464,0.093086
1338,4110000000.0,3.156698493e-05,0.000202026334588,9.74614678308,0.999999964339,1.20994352926e-07,-4.11128680211e-06,-0.000267028790264,-0.0729199722409,-3.28063947608e-06,7.00514316559,-0.002153,0.020744,0.075806,-0.013337,0.103464,0.093086
1339,4120000000.0,3.00982112478e-05,0.000201225280765,9.81624658561,0.999999964657,1.19355014983e-07,-4.07123478396e-06,-0.000265836690884,-0.0729693621397,-3.04222089742e-06,7.00971841812,-0.002153,0.020744,0.075806,-0.013337,0.103464,0.093086
1340,4130000000.0,2.78750545917e-05,0.000202293391339,9.88678509427,0.99999996426,1.23436277533e-07,-4.02650326881e-06,-0.000267326819175,-0.0734276324511,-2.82287601383e-06,7.05336999893,-0.002153,0.020744,0.075806,-0.013337,0.103464,0.093086
1341,4140000000.0,2.51950105863e-05,0.000201492221095,9.95736746957,0.999999964578,1.10602863423e-07,-3.96980351336e-06,-0.000266134719842,-0.07347805053,-2.40325926093e-06,7.05799245834,-0.002153,0.020744,0.075806,-0.013337,0.103464,0.093086
1342,4150000000.0,2.17605836141e-05,0.000202445895408,10.028388551,0.999999964213,1.03284287567e-07,-3.9053032771e-06,-0.000267505620361,-0.073934674263,-1.88827505143e-06,7.10151481628,-0.002153,0.020744,0.075806,-0.013337,0.103464,0.093086
1343,4160000000.0,2.54982500536e-05,0.000201644841585,10.0994535785,0.999999964547,9.9358830441e-08,-3.82988056036e-06,-0.000266253931465,-0.0739855393767,-2.26020802119e-06,7.1061835289,-0.002153,0.020744,0.075806,-0.013337,0.103464,0.093086
1344,4170000000.0,2.47067724786e-05,0.000202598515898,10.1709534579,0.999999964181,9.52245512997e-08,-3.76330056567e-06,-0.00026762483197,-0.074438162148,-1.16348269419e-06,7.14957666397,-0.002153,0.020744,0.075806,-0.013337,0.103464,0.093086
1345,4180000000.0,2.34385428968e-05,0.000201759277836,10.2424991112,0.999999964516,9.437140297e-08,-3.68735852824e-06,-0.000266373143062,-0.0744879990816,-2.00271597439e-06,7.15429019928,-0.002153,0.020744,0.075806,-0.013337,0.103464,0.093086
1346,4190000000.0,2.14556596703e-05,0.000202674884346,10.3144796562,0.999999964134,9.25030937404e-08,-3.61297690965e-06,-0.000267803649341,-0.0749407857656,-1.51634208301e-06,7.19755172729,-0.002153,0.020744,0.075806,-0.013337,0.103464,0.093086
1347,4200000000.0,2.28204471497e-05,0.000201797462068,10.3865050611,0.999999964501,9.05781164517e-08,-3.53287339033e-06,-0.000266432748872,-0.0749913156033,-1.5926360688e-06,7.20231056213,-0.002153,0.020744,0.075806,-0.013337,0.103464,0.093086
1348,4210000000.0,2.72950037044e-05,0.000202712952159,10.4589644438,0.999999964135,8.85335436629e-08,-3.4595320112e-06,-0.000267803649369,-0.075441390276,-2.36511232288e-06,7.24544000626,-0.002153,0.020744,0.075806,-0.013337,0.103464,0.093086
1349,4220000000.0,2.74783178611e-05,0.000201835646291,10.5314695606,0.999999964517,8.84657373468e-08,-3.38359017571e-06,-0.00026637314311,-0.0754911378026,-1.25885003488e-06,7.25024271011,-0.002153,0.020744,0.075806,-0.013337,0.103464,0.093086
1350,4230000000.0,3.07813334359e-05,0.000202674884349,10.6044077015,0.999999964135,8.8727702463e-08,-3.31597105113e-06,-0.000267803649381,-0.0759391784668,-1.12533564511e-06,7.29324007034,-0.002153,0.020744,0.075806,-0.013337,0.103464,0.093086
1351,4240000000.0,3.36175293256e-05,0.000201797462068,10.6773906627,0.999999964517,8.98657782078e-08,-3.25251310257e-06,-0.000266373143117,-0.0759875625372,-1.23977656674e-06,7.29808568954,-0.002153,0.020744,0.075806,-0.013337,0.103464,0.093086
1352,4250000000.0,3.57688685781e-05,0.000202636700124,10.7508056547,0.999999964183,9.25724706891e-08,-3.2072610085e-06,-0.000267624832032,-0.0764323100448,-1.74522392804e-06,7.34095096588,-0.002153,0.020744,0.075806,-0.013337,0.103464,0.093086
1353,4260000000.0,3.36289654683e-05,0.000201759277846,10.8242663808,0.999999964549,9.35932888413e-08,-3.16408882345e-06,-0.000266253931549,-0.0764815062284,-2.07901007432e-06,7.3458404541,-0.002153,0.020744,0.075806,-0.013337,0.103464,0.093086
1354,4270000000.0,3.84530511113e-05,0.000202598515894,10.8981573099,0.999999964215,9.81154148483e-08,-3.12507900246e-06,-0.000267505620457,-0.0769269168377,-1.18255616233e-06,7.38857221603,-0.002153,0.020744,0.075806,-0.013337,0.103464,0.093086
1355,4280000000.0,3.89660297202e-05,0.000201644841582,10.9720958804,0.999999964581,1.03344230451e-07,-3.08398852411e-06,-0.000266134719962,-0.0769780725241,-7.05719005012e-07,7.39350223541,-0.002153,0.020744,0.075806,-0.013337,0.103464,0.093086
1356,4290000000.0,3.88338810211e-05,0.000202484079633,11.0464626672,0.999999964264,1.10192537039e-07,-3.05850319376e-06,-0.000267326819334,-0.0774199739099,-9.34600793201e-07,7.43609952927,-0.002153,0.020744,0.075806,-0.013337,0.103464,0.093086
1357,4300000000.0,4.20295383634e-05,0.000201530405317,11.1208762212,0.999999964629,1.10487434479e-07,-3.03405614066e-06,-0.000265955902598,-0.0774703845382,-9.72747785877e-07,7.4410738945,-0.002153,0.020744,0.075806,-0.013337,0.103464,0.093086
1358,4310000000.0,4.45999330481e-05,0.000202331459153,11.1957160842,0.999999964295,1.1754296475e-07,-3.0262559324e-06,-0.000267207607751,-0.0779095068574,-1.41143800692e-06,7.48353862762,-0.002153,0.020744,0.075806,-0.013337,0.103464,0.093086
1359,4320000000.0,4.66637787468e-05,0.000201377784837,11.270604582,0.999999964661,1.2327319221e-07,-3.02417670339e-06,-0.000265836690996,-0.0779592245817,-1.67846678911e-06,7.48855447769,-0.002153,0.020744,0.075806,-0.013337,0.103464,0.093086
1360,4330000000.0,4.81222264597e-05,0.000202178955078,11.3459174816,0.999999964359,1.21968859179e-07,-3.04030109849e-06,-0.000266969184607,-0.0783971175551,-1.70707699132e-06,7.5308842659,-0.002153,0.020744,0.075806,-0.013337,0.103464,0.093086
1361,4340000000.0,4.90741251724e-05,0.000201225280762,11.4212790159,0.99999996474,1.26568600656e-07,-3.05486630958e-06,-0.000265538678325,-0.0784476697445,-1.85966484922e-06,7.5359416008,-0.002153,0.020744,0.075806,-0.013337,0.103464,0.093086
1362,4350000000.0,4.94106935847e-05,0.000202026334591,11.4970659056,0.999999964438,1.28169219127e-07,-3.0850354954e-06,-0.000266671155671,-0.0788845792413,-2.09808354246e-06,7.57813692093,-0.002153,0.020744,0.075806,-0.013337,0.103464,0.093086
1363,4360000000.0,4.92407129826e-05,0.000201072660268,11.5729014301,0.999999964803,1.30605869619e-07,-3.11468443936e-06,-0.000265300255176,-0.0789362341166,-1.6117095365e-06,7.58323526382,-0.002153,0.020744,0.075806,-0.013337,0.103464,0.093086
1364,4370000000.0,5.2309621779e-05,0.000201835646301,11.6491585352,0.999999964518,1.33975686156e-07,-3.15473691637e-06,-0.000266373142987,-0.0793724581599,-1.39236442598e-06,7.6252951622,-0.002153,0.020744,0.075806,-0.013337,0.103464,0.093086
1365,4380000000.0,5.48421845821e-05,0.000200881971981,11.725467136,0.999999964882,1.38837312036e-07,-3.19478946637e-06,-0.000265002226228,-0.0794234871864,-1.50680534894e-06,7.63043451309,-0.002153,0.020744,0.075806,-0.013337,0.103464,0.093086
1366,4390000000.0,5.68090787425e-05,0.000201683025804,11.802196324,0.999999964581,1.45687960973e-07,-3.25252793804e-06,-0.000266134719807,-0.0798567906022,-1.91688536821e-06,7.67235994339,-0.002153,0.020744,0.075806,-0.013337,0.103464,0.093086
1367,4400000000.0,5.82694238886e-05,0.000200691167262,11.8789741468,0.999999964993,7.33881506121e-08,-2.86083669426e-06,-0.00026458500224,-0.0800266563892,-8.58306862916e-07,7.6775393486,-0.002153,0.020744,0.075806,-0.013337,0.103464,0.093086
1368,4410000000.0,5.91641004064e-05,0.000201492221095,11.9561725569,0.999999964711,5.31885424593e-10,-2.00257223343e-06,-0.000265657890275,-0.0805903598666,-9.05990590994e-07,7.71932649612,-0.002153,0.020744,0.075806,-0.013337,0.103464,0.093086
1369,4420000000.0,5.95422955811e-05,0.000200500478964,12.0334205553,0.999999965092,-2.66087900769e-07,-8.64416658641e-07,-0.000264227367985,-0.0807262137532,1.0490417246e-07,7.72454738617,-0.002153,0.020744,0.075806,-0.013337,0.103464,0.093086
1370,4430000000.0,5.9374686785e-05,0.000201225280758,12.1110872339,0.999999964808,-2.66471880839e-07,5.87318459477e-07,-0.000265300255425,-0.0812602490187,-5.43594355307e-07,7.76620101929,-0.002153,0.020744,0.075806,-0.013337,0.103464,0.093086
1371,4440000000.0,6.24852223368e-05,0.000200309674252,12.1888054477,0.999999965184,-5.33211516385e-07,2.19620807107e-06,-0.000263869748145,-0.0813684910536,-1.62124637271e-07,7.77146244049,-0.002153,0.020744,0.075806,-0.013337,0.103464,0.093086
1372,4450000000.0,6.88843089875e-05,0.000201034476042,12.2669404741,0.999999964879,-5.33695469596e-07,4.01256769705e-06,-0.000265002224531,-0.0818797275424,-5.05447362631e-07,7.81297969818,-0.002153,0.020744,0.075806,-0.013337,0.103464,0.093086
1373,4460000000.0,7.47569819453e-05,0.000199851929203,12.3451260425,0.999999965232,-8.00504073972e-07,5.90129686157e-06,-0.000263631321467,-0.0819738358259,7.53402672693e-07,7.81828212738,-0.002153,0.020744,0.075806,-0.013337,0.103464,0.093086
1374,4470000000.0,8.01136479396e-05,0.000200653099451,12.42372743,0.999999964966,-8.01042166931e-07,7.91375268006e-06,-0.000264584996118,-0.082465864718,-3.55720521972e-06,7.85966348648,-0.002153,0.020744,0.075806,-0.013337,0.103464,0.093086
1375,4480000000.0,8.11194775565e-05,0.000199737492949,12.5023802735,0.999999965341,-1.06787779403e-06,9.93355869855e-06,-0.000263094879805,-0.0825466066599,-2.44140619765e-06,7.86500835419,-0.002153,0.020744,0.075806,-0.013337,0.103464,0.093086
1376,4490000000.0,8.92382809567e-05,0.000200462294742,12.5814490156,0.999999965035,-1.06844000047e-06,1.20214364484e-05,-0.000264167749147,-0.0830274820328,-1.3542174897e-06,7.90625333786,-0.002153,0.020744,0.075806,-0.013337,0.103464,0.093086
1377,4500000000.0,9.6830670671e-05,0.000199470436197,12.6605682997,0.99999996537,-1.06895793861e-06,1.40557362936e-05,-0.000262796846489,-0.0830945298076,-8.67843596986e-07,7.91163539886,-0.002153,0.020744,0.075806,-0.013337,0.103464,0.093086
1378,4510000000.0,0.000100132292367,0.00020023342222,12.7400995487,0.999999965088,-1.06951274559e-06,1.61077236602e-05,-0.000263750520557,-0.0835620686412,-9.05990590994e-07,7.9527463913,-0.002153,0.020744,0.075806,-0.013337,0.103464,0.093086
1379,4520000000.0,0.000102877703398,0.000199241563674,12.8196842007,0.99999996543,-1.07000991661e-06,1.80915690266e-05,-0.000262320012168,-0.0836258009076,-7.62939453836e-08,7.95817136765,-0.002153,0.020744,0.075806,-0.013337,0.103464,0.093086
1380,4530000000.0,0.000108951394836,0.000199966365475,12.8996818506,0.999999965126,-1.07055016596e-06,2.00728162416e-05,-0.000263333275838,-0.0840878635645,-6.1035155019e-07,7.99914455414,-0.002153,0.020744,0.075806,-0.013337,0.103464,0.093086
1381,4540000000.0,0.000114488740252,0.000199012691152,12.9797309962,0.999999965446,-1.07101876939e-06,2.19666759591e-05,-0.000261962373326,-0.0841476619244,3.43322737351e-07,8.00460910797,-0.002153,0.020744,0.075806,-0.013337,0.103464,0.093086
1382,4550000000.0,0.000123374230753,0.000199661240909,13.0601912326,0.999999965169,-1.07152886841e-06,2.38340104962e-05,-0.000262856441806,-0.084601894021,4.67300394824e-07,8.04544639587,-0.002153,0.020744,0.075806,-0.013337,0.103464,0.093086
1383,4560000000.0,0.000124094394508,0.000198745750826,13.1407028851,0.9999999655,-1.07195871241e-06,2.56071956695e-05,-0.000261425933639,-0.0846585482359,8.10623133063e-07,8.05095100403,-0.002153,0.020744,0.075806,-0.013337,0.103464,0.093086
1384,4570000000.0,0.000131977193689,0.000199394184165,13.2216256682,0.999999965173,-1.07244421749e-06,2.73528156153e-05,-0.00026249880334,-0.0851097255945,1.7070769891e-06,8.09165287018,-0.002153,0.020744,0.075806,-0.013337,0.103464,0.093086
1385,4580000000.0,0.0001355091565,0.000198249821551,13.3025999071,0.999999965485,-1.07283734108e-06,2.90011651809e-05,-0.000261127901087,-0.085165977478,2.5463102693e-06,8.09719753265,-0.002153,0.020744,0.075806,-0.013337,0.103464,0.093086
1386,4590000000.0,0.000142409129033,0.000199127127416,13.3839833296,0.999999965219,-1.07328334603e-06,3.06120663777e-05,-0.000261962364057,-0.0856112390757,-2.97546375982e-06,8.13776016235,-0.002153,0.020744,0.075806,-0.013337,0.103464,0.093086
1387,4600000000.0,0.000144948332874,0.000197944580577,13.4654191617,0.999999965529,-1.07364048374e-06,3.21428623538e-05,-0.000260591461929,-0.0856720656157,3.49998458571e-06,8.14334964752,-0.002153,0.020744,0.075806,-0.013337,0.103464,0.093086
1388,4610000000.0,0.000185205824451,0.000198707566597,13.5472626276,0.999999964703,-3.20808036203e-06,4.69926235533e-05,-0.000261485416319,-0.0896251350641,-2.09808354246e-06,8.18370914459,-0.002153,0.020744,0.075806,-0.013337,0.103464,0.093086
1389,4620000000.0,0.000221092615007,0.000197753892273,13.6291594566,0.999999964209,-5.07630333096e-06,6.26724641605e-05,-0.000260054726632,-0.0900738537312,-3.43322740015e-07,8.1893529892,-0.002153,0.020744,0.075806,-0.013337,0.103464,0.093086
1390,4630000000.0,0.000268016125361,0.000198364257816,13.7114617341,0.999999962694,-6.67875835764e-06,7.98721214703e-05,-0.000261127399483,-0.0911138877273,4.95910625453e-07,8.22963523865,-0.002153,0.020744,0.075806,-0.013337,0.103464,0.093086
1391,4640000000.0,0.000314373492714,0.000197563087568,13.7938183682,0.999999961535,-8.01476315876e-06,9.73915828679e-05,-0.000259577434927,-0.0914355888963,-7.72476200339e-07,8.23529243469,-0.002153,0.020744,0.075806,-0.013337,0.103464,0.093086
1392,4650000000.0,0.000360343973419,0.00019813538529,13.8765784243,0.999999959296,-9.08493038615e-06,0.000115835298649,-0.000260590445707,-0.0923543795943,2.97546375627e-06,8.27544021606,-0.002153,0.020744,0.075806,-0.013337,0.103464,0.093086
1393,4660000000.0,0.000417181849933,0.000197067274708,13.9593939097,0.999999957383,-9.88843669997e-06,0.000134062541047,-0.000259159650454,-0.0925882235169,9.5367431463e-07,8.28114509583,-0.002153,0.020744,0.075806,-0.013337,0.103464,0.093086
1394,4670000000.0,0.000466013791382,0.000197715708055,14.0426117841,0.999999954441,-1.06924014961e-05,0.000152892137908,-0.000260053412533,-0.0934608057141,9.72747782768e-07,8.32115840912,-0.002153,0.020744,0.075806,-0.013337,0.103464,0.093086
1395,4680000000.0,0.00052952761898,0.000196723849513,14.1258851276,0.999999951841,-1.09632354174e-05,0.000171206624728,-0.000258622664821,-0.0936255082488,-1.7166137134e-07,8.32690620422,-0.002153,0.020744,0.075806,-0.013337,0.103464,0.093086
1396,4690000000.0,0.000585055376192,0.000197334215041,14.2095589528,0.999999948236,-1.15008531958e-05,0.000189776599396,-0.000259576036357,-0.0944200754166,-9.53674317294e-07,8.36678123474,-0.002153,0.020744,0.075806,-0.013337,0.103464,0.093086
1397,4700000000.0,0.000647636038806,0.000196571345445,14.2932881675,0.999999945037,-1.17715299271e-05,0.000207724380061,-0.000258145252088,-0.0945717319846,-2.40325926093e-06,8.37256908417,-0.002153,0.020744,0.075806,-0.013337,0.103464,0.093086
1398,4710000000.0,0.000717498524878,0.000197143526748,14.3774170694,0.999999940933,-1.1776336234e-05,0.000225461979994,-0.00025915832527,-0.0952515080571,3.11851499468e-06,8.41230964661,-0.002153,0.020744,0.075806,-0.013337,0.103464,0.093086
1399,4720000000.0,0.000775321599804,0.000196151668209,14.4616030694,0.999999937347,-1.17803693193e-05,0.000242305936734,-0.000257787226427,-0.0953300818801,4.48226925798e-07,8.41813659668,-0.002153,0.020744,0.075806,-0.013337,0.103464,0.093086
1400,4730000000.0,0.000848075343598,0.000196723849513,14.5461869286,0.999999932996,-1.17848401518e-05,0.000258811302364,-0.000258621496624,-0.0959698185325,-4.19616697833e-07,8.45773887634,-0.002153,0.020744,0.075806,-0.013337,0.103464,0.093086
1401,4740000000.0,0.000916428589356,0.000195770175193,14.6308270119,0.999999929201,-1.15221771769e-05,0.000274387068148,-0.000257250485672,-0.0960321500897,-9.8228452039e-07,8.46361160278,-0.002153,0.020744,0.075806,-0.013337,0.103464,0.093086
1402,4750000000.0,0.00098827896516,0.000196418724954,14.7158638817,0.999999924722,-1.12599951637e-05,0.000289518132046,-0.000258084853067,-0.0966330394149,-4.00543202161e-07,8.50307559967,-0.002153,0.020744,0.075806,-0.013337,0.103464,0.093086
1403,4760000000.0,0.00105953340098,0.00019550323486,14.8009579687,0.999999920862,-1.09969307347e-05,0.000303730589077,-0.000256713857218,-0.0966866835952,3.43322737351e-07,8.50898838043,-0.002153,0.020744,0.075806,-0.013337,0.103464,0.093086
1404,4770000000.0,0.00113048040882,0.000195960979912,14.8864478489,0.999999916375,-1.07344190172e-05,0.000317448409403,-0.000257607861318,-0.0972587689757,1.64031973604e-06,8.54831504822,-0.002153,0.020744,0.075806,-0.013337,0.103464,0.093086
1405,4780000000.0,0.00120464596701,0.000195121741854,14.9719949862,0.999999912586,-1.04709397925e-05,0.00033029079514,-0.00025617730521,-0.0973085835576,-2.06947311288e-06,8.55426883698,-0.002153,0.020744,0.075806,-0.013337,0.103464,0.093086
1406,4790000000.0,0.00127470947156,0.00019573210739,15.0579359696,0.999999908127,-1.02081782267e-05,0.000342730611689,-0.000257250153974,-0.097887955606,-1.6403197387e-06,8.59345722198,-0.002153,0.020744,0.075806,-0.013337,0.103464,0.093086
1407,4800000000.0,0.00135180601682,0.000194740248848,15.1439342498,0.999999904454,-9.94431863838e-06,0.000354414626086,-0.000255700395078,-0.0979559272528,-8.29696660709e-07,8.59945297241,-0.002153,0.020744,0.075806,-0.013337,0.103464,0.093086
1408,4810000000.0,0.00143243942149,0.000195388798598,15.230325502,0.999999900207,-9.41488137973e-06,0.000365549839913,-0.000256654155234,-0.0984785035253,-7.8201293352e-07,8.63850307465,-0.002153,0.020744,0.075806,-0.013337,0.103464,0.093086
1409,4820000000.0,0.00153917831877,0.000194473192096,15.3167742497,0.999999891634,-1.12846178963e-05,0.000389147884537,-0.000255282307156,-0.102005295455,-1.11579891104e-06,8.64449882507,-0.002153,0.020744,0.075806,-0.013337,0.103464,0.093086
1410,4830000000.0,0.00165326856582,0.000195083557628,15.403616009,0.999999880997,-1.31557802629e-05,0.000415015880835,-0.000256115706116,-0.103421263397,-3.05175776205e-07,8.68339538574,-0.002153,0.020744,0.075806,-0.013337,0.103464,0.093086
1411,4840000000.0,0.00177057736324,0.000194129883315,15.4905150254,0.99999986991,-1.47598942338e-05,0.00044166452249,-0.000254743733105,-0.104033388197,-3.81469705601e-07,8.68946075439,-0.002153,0.020744,0.075806,-0.013337,0.103464,0.093086
1412,4850000000.0,0.00189908179782,0.000194663996812,15.5778042324,0.999999856909,-1.60990052851e-05,0.000469684238612,-0.000255577158628,-0.105243422091,-1.05857850663e-06,8.72822380066,-0.002153,0.020744,0.075806,-0.013337,0.103464,0.093086
1413,4860000000.0,0.00202697042772,0.000193901010778,15.665152564,0.999999843807,-1.71706646767e-05,0.000497495270395,-0.000254145674747,-0.105630032718,-2.04086291156e-06,8.73434257507,-0.002153,0.020744,0.075806,-0.013337,0.103464,0.093086
1414,4870000000.0,0.00216226006906,0.000194473192099,15.7528891392,0.999999829033,-1.79772995255e-05,0.000525894560651,-0.00025503883721,-0.106690622866,3.29017620793e-06,8.77297019958,-0.002153,0.020744,0.075806,-0.013337,0.103464,0.093086
1415,4880000000.0,0.00230074342993,0.000193481449966,15.8406853555,0.999999814427,-1.85162366949e-05,0.000553584259812,-0.000253667144193,-0.106973692775,2.19345081653e-07,8.77912902832,-0.002153,0.020744,0.075806,-0.013337,0.103464,0.093086
1416,4890000000.0,0.00244282324421,0.000194053631279,15.9288688221,0.999999798442,-1.90564004198e-05,0.00058136294388,-0.000254500784647,-0.107918143272,1.08718870617e-06,8.8176202774,-0.002153,0.020744,0.075806,-0.013337,0.103464,0.093086
1417,4900000000.0,0.00258427732149,0.000193099956959,16.0171123668,0.999999782873,-1.90623775986e-05,0.000608124560628,-0.000253129358086,-0.108128838241,1.90734850136e-07,8.82382488251,-0.002153,0.020744,0.075806,-0.013337,0.103464,0.093086
1418,4910000000.0,0.00273697173141,0.00019359588623,16.1057418109,0.999999766181,-1.9335968482e-05,0.00063461476954,-0.000254022754326,-0.108985170722,-1.23023983356e-06,8.86217594147,-0.002153,0.020744,0.075806,-0.013337,0.103464,0.093086
1419,4920000000.0,0.00288522591394,0.000192756648172,16.1944312934,0.999999750171,-1.90751654948e-05,0.000659894934787,-0.00025265154098,-0.109143070877,-1.25885003488e-06,8.86842441559,-0.002153,0.020744,0.075806,-0.013337,0.103464,0.093086
1420,4930000000.0,0.00304092083725,0.000193367013704,16.283505205,0.999999733136,-1.90821329077e-05,0.000684870923954,-0.000253604740519,-0.109982505441,-6.86645479142e-07,8.90663719177,-0.002153,0.020744,0.075806,-0.013337,0.103464,0.093086
1421,4940000000.0,0.00319217553319,0.000192451407198,16.3726391551,0.999999717025,-1.88208361924e-05,0.000708500657643,-0.000252233561829,-0.110096812248,1.81198116955e-07,8.91292858124,-0.002153,0.020744,0.075806,-0.013337,0.103464,0.093086
1422,4950000000.0,0.00335469042645,0.000193061772734,16.4621570972,0.999999700175,-1.85609611392e-05,0.000731616004941,-0.000253067786028,-0.110866352916,8.20159867132e-07,8.9510011673,-0.002153,0.020744,0.075806,-0.013337,0.103464,0.093086
1423,4960000000.0,0.00351657461653,0.000191955477927,16.5517355944,0.999999684405,-1.80327887483e-05,0.000753335166307,-0.000251696883992,-0.110951371491,2.84194948019e-06,8.95733642578,-0.002153,0.020744,0.075806,-0.013337,0.103464,0.093086
1424,4970000000.0,0.00368211485402,0.000192756648172,16.64169562,0.999999668249,-1.77723811686e-05,0.000774218555191,-0.000252531177982,-0.111613564193,-2.89916988638e-06,8.99527072906,-0.002153,0.020744,0.075806,-0.013337,0.103464,0.093086
1425,4980000000.0,0.00384700452366,0.000191612169139,16.7317181079,0.999999653305,-1.72435452587e-05,0.00079375101208,-0.000251100747751,-0.111688584089,2.85148621426e-06,9.00165176392,-0.002153,0.020744,0.075806,-0.013337,0.103464,0.093086
1426,4990000000.0,0.0040193895619,0.000192413339395,16.82211978,0.999999638109,-1.67162786424e-05,0.000812422661434,-0.000251935322888,-0.112316459417,-3.00407396114e-06,9.0394449234,-0.002153,0.020744,0.075806,-0.013337,0.103464,0.093086
1427,5000000000.0,0.00418729960961,0.000191383296624,16.9125848283,0.999999624177,-1.61868920417e-05,0.000829819911115,-0.000250564557748,-0.112384535372,2.41279599233e-06,9.04587078094,-0.002153,0.020744,0.075806,-0.013337,0.103464,0.093086
1428,5010000000.0,0.00435891040023,0.000191955477931,17.0034271138,0.999999610113,-1.56591119471e-05,0.00084636103127,-0.000251399205162,-0.11298391968,1.84059137887e-06,9.08352470398,-0.002153,0.020744,0.075806,-0.013337,0.103464,0.093086
1429,5020000000.0,0.00454893314254,0.000191001803614,17.0943330138,0.999999588479,-1.67296532158e-05,0.000871904727397,-0.000250086582076,-0.115727625787,3.1471250761e-07,9.08995628357,-0.002153,0.020744,0.075806,-0.013337,0.103464,0.093086
1430,5030000000.0,0.00475411003119,0.000191535917111,17.1856153166,0.999999564516,-1.78023228159e-05,0.000898732702834,-0.000250860034386,-0.116988494992,-2.86102297409e-08,9.12746143341,-0.002153,0.020744,0.075806,-0.013337,0.103464,0.093086
1431,5040000000.0,0.0049624359439,0.000190620427023,17.2769615518,0.999999540406,-1.86067723454e-05,0.000925509599852,-0.00024954752403,-0.117454193532,-1.09672544291e-06,9.1339635849,-0.002153,0.020744,0.075806,-0.013337,0.103464,0.093086
1432,5050000000.0,0.00517830192068,0.000191116356287,17.3686826799,0.999999514434,-1.94133605891e-05,0.000952923716551,-0.000250380716833,-0.118552289903,-1.50680534894e-06,9.17133140564,-0.002153,0.020744,0.075806,-0.013337,0.103464,0.093086
1433,5060000000.0,0.00539350739732,0.000190467806529,17.4604672239,0.999999488773,-1.9951543747e-05,0.000979775967252,-0.000249187574772,-0.118901014328,-2.85148621693e-06,9.17788314819,-0.002153,0.020744,0.075806,-0.013337,0.103464,0.093086
1434,5070000000.0,0.00561625293807,0.000190963735804,17.5526266607,0.999999461868,-2.02252275494e-05,0.00100669476538,-0.000249842416534,-0.119876489043,2.30789168931e-06,9.21511173248,-0.002153,0.020744,0.075806,-0.013337,0.103464,0.093086
1435,5080000000.0,0.00584215246901,0.000190010061488,17.6448495532,0.999999435646,-2.04967505912e-05,0.00103271002731,-0.000248589927001,-0.120143964887,1.80244444259e-06,9.22170734406,-0.002153,0.020744,0.075806,-0.013337,0.103464,0.093086
1436,5090000000.0,0.00606797798181,0.000190582242798,17.7374458287,0.999999408552,-2.05040283432e-05,0.00105842513811,-0.000249423864074,-0.121022462845,2.19345081653e-07,9.25879669189,-0.002153,0.020744,0.075806,-0.013337,0.103464,0.093086
1437,5100000000.0,0.00630075707669,0.000189590384252,17.8301070299,0.999999382538,-2.05086829019e-05,0.00108303905013,-0.000248052443374,-0.121234573424,2.57492045463e-07,9.26544094086,-0.002153,0.020744,0.075806,-0.013337,0.103464,0.093086
1438,5110000000.0,0.00653730147463,0.000190086313527,17.9231392698,0.999999355989,-2.02492587967e-05,0.00110709846116,-0.000248886708902,-0.122038140893,-2.09808350249e-07,9.3023891449,-0.002153,0.020744,0.075806,-0.013337,0.103464,0.093086
1439,5120000000.0,0.00676935101738,0.000189247075468,18.0162367931,0.999999330782,-1.99870756984e-05,0.00112994380212,-0.000247515647546,-0.122208058834,-1.15394584732e-06,9.30907821655,-0.002153,0.020744,0.075806,-0.013337,0.103464,0.093086
1440,5130000000.0,0.00701280974242,0.000189819256775,18.1097040041,0.999999305328,-1.97272029011e-05,0.00115207450173,-0.000248349976114,-0.122952841222,-2.76565545576e-07,9.34588623047,-0.002153,0.020744,0.075806,-0.013337,0.103464,0.093086
1441,5140000000.0,0.00725177857841,0.000188980018713,18.2032360217,0.999999281406,-1.91981464104e-05,0.00117295361614,-0.000246979289379,-0.123094171286,2.86102276092e-07,9.35262107849,-0.002153,0.020744,0.075806,-0.013337,0.103464,0.093086
1442,5150000000.0,0.00750597108712,0.000189514132217,18.2971377667,0.999999257474,-1.89377122872e-05,0.00119302556619,-0.000247754080073,-0.123789228499,4.76837112018e-08,9.38928794861,-0.002153,0.020744,0.075806,-0.013337,0.103464,0.093086
1443,5160000000.0,0.00775185425022,0.000188598642122,18.3911047554,0.999999235178,-1.84081542431e-05,0.00121184593531,-0.00024644305908,-0.123909316957,-1.90734876782e-08,9.39606952667,-0.002153,0.020744,0.075806,-0.013337,0.103464,0.093086
1444,5170000000.0,0.00800153747957,0.000189132639203,18.4854394451,0.999999213063,-1.78809049768e-05,0.00122981173788,-0.000247218241689,-0.124563224614,-2.86102279645e-07,9.43259429932,-0.002153,0.020744,0.075806,-0.013337,0.103464,0.093086
1445,5180000000.0,0.00825053041174,0.000188255333338,18.5798404115,0.99999919261,-1.73507895483e-05,0.00124659832826,-0.00024590731178,-0.124674983323,-3.71932971532e-07,9.43942165375,-0.002153,0.020744,0.075806,-0.013337,0.103464,0.093086
1446,5190000000.0,0.00851097225556,0.000188751146197,18.6746072511,0.999999172441,-1.68230528623e-05,0.00126253034998,-0.00024668256608,-0.125298216939,7.62939406762e-07,9.47580528259,-0.002153,0.020744,0.075806,-0.013337,0.103464,0.093086
1447,5200000000.0,0.00876690434567,0.000187873840328,18.7694408046,0.999999153922,-1.60263115499e-05,0.00127734239617,-0.000245550844707,-0.12539999187,-6.77108745073e-07,9.48267936707,-0.002153,0.020744,0.075806,-0.013337,0.103464,0.093086
1448,5210000000.0,0.00901523276023,0.000188369769603,18.8646381253,0.999999140715,-1.49643203682e-05,0.00128753912859,-0.000246148110174,-0.124999836087,-1.62124627145e-06,9.51893138885,-0.002153,0.020744,0.075806,-0.013337,0.103464,0.093086
1449,5220000000.0,0.00926666550333,0.000187492347326,18.9599036698,0.999999132396,-1.3366602984e-05,0.00129421586331,-0.000245017585607,-0.124400310218,-1.22070309949e-06,9.52586364746,-0.002153,0.020744,0.075806,-0.013337,0.103464,0.093086
1450,5230000000.0,0.00951432395974,0.000188140780665,19.0555315909,0.9999991247,-1.20373046244e-05,0.00130003808344,-0.000245674885678,-0.124877467752,-9.82284519502e-07,9.56196308136,-0.002153,0.020744,0.075806,-0.013337,0.103464,0.093086
1451,5240000000.0,0.00976127225432,0.0001872634748,19.151227696,0.999999118441,-1.09716460995e-05,0.00130508740746,-0.000244424527298,-0.124949321151,1.41143800381e-06,9.56893253326,-0.002153,0.020744,0.075806,-0.013337,0.103464,0.093086
1452,5250000000.0,0.0100120851753,0.000187644967813,19.2472853035,0.999999112597,-1.01746956307e-05,0.00130943045638,-0.000245140778335,-0.125424101949,1.76429739263e-06,9.60488891602,-0.002153,0.020744,0.075806,-0.013337,0.103464,0.093086
1453,5260000000.0,0.0102621879344,0.00018688198179,19.3434110951,0.999999107992,-9.3750259374e-06,0.00131318155832,-0.000243890085225,-0.12550213933,-2.44140619721e-06,9.61190509796,-0.002153,0.020744,0.075806,-0.013337,0.103464,0.093086
1454,5270000000.0,0.0105161751846,0.000187416095287,19.4398964818,0.999999103607,-8.57795316167e-06,0.00131636675758,-0.00024472557105,-0.12597322464,-1.40190116049e-06,9.64771842957,-0.002153,0.020744,0.075806,-0.013337,0.103464,0.093086
1455,5280000000.0,0.0107656278503,0.000186576857232,19.5364509664,0.999999100365,-8.04418023598e-06,0.00131908439134,-0.000243355351022,-0.126056239009,3.24249269212e-07,9.6547832489,-0.002153,0.020744,0.075806,-0.013337,0.103464,0.093086
1456,5290000000.0,0.0110189699732,0.000187110854313,19.6333645694,0.999999097151,-7.51320516995e-06,0.00132136719782,-0.000244190500435,-0.126529097557,8.48770125295e-07,9.69045257568,-0.002153,0.020744,0.075806,-0.013337,0.103464,0.093086
1457,5300000000.0,0.0112754114585,0.000186271616254,19.7303468729,0.999999094961,-6.97915092956e-06,0.00132328952637,-0.000242760685795,-0.126617208123,7.15255735528e-07,9.69756603241,-0.002153,0.020744,0.075806,-0.013337,0.103464,0.093086
1458,5310000000.0,0.0115243187945,0.000186767545529,19.8276862684,0.999999092691,-6.7143200484e-06,0.00132485251206,-0.000243595491685,-0.127082258463,2.44140619543e-06,9.73309230804,-0.002153,0.020744,0.075806,-0.013337,0.103464,0.093086
1459,5320000000.0,0.0117801226017,0.000185661250725,19.925096073,0.999999091316,-6.18018477028e-06,0.0013261433825,-0.000242225273823,-0.127175807953,2.05993637614e-06,9.74025440216,-0.002153,0.020744,0.075806,-0.013337,0.103464,0.093086
1460,5330000000.0,0.0120360435882,0.000186386052523,20.0228609034,0.999999089752,-5.91522572274e-06,0.00132717061504,-0.000243060084888,-0.12764133513,-3.54766848609e-06,9.77563476562,-0.002153,0.020744,0.075806,-0.013337,0.103464,0.093086
1461,5340000000.0,0.0122988585628,0.000185356126167,20.1206963812,0.999999088987,-5.64728956254e-06,0.00132799861934,-0.000241689534375,-0.127738565207,2.08854680572e-06,9.78284835815,-0.002153,0.020744,0.075806,-0.013337,0.103464,0.093086
1462,5350000000.0,0.0125579861586,0.000185852055441,20.2188858915,0.999999088987,-5.64728956254e-06,0.00132799861934,-0.000241689534375,-0.128199368715,-2.86102295011e-06,9.81808280945,-0.002153,0.020744,0.075806,-0.013337,0.103464,0.093086
1463,5360000000.0,0.0128163737955,0.000185089069415,20.3171464466,0.999999087629,-4.84813115054e-06,0.00132908865532,-0.00024133295571,-0.128301635385,-2.49862660162e-06,9.82534599304,-0.002153,0.020744,0.075806,-0.013337,0.103464,0.093086
1464,5370000000.0,0.0130787228992,0.000185546814464,20.4157592064,0.999999087629,-4.84813115054e-06,0.00132908865532,-0.00024133295571,-0.128758653998,-1.24931330081e-06,9.86043834686,-0.002153,0.020744,0.075806,-0.013337,0.103464,0.093086
1465,5380000000.0,0.0133403245947,0.000184745760635,20.5144437262,0.999999087629,-4.84813115054e-06,0.00132908865532,-0.00024133295571,-0.128854960203,-1.12533564511e-06,9.86774921417,-0.002153,0.020744,0.075806,-0.013337,0.103464,0.093086
1466,5390000000.0,0.0136020807157,0.000185203505684,20.6134796957,0.999999087629,-4.84813115054e-06,0.00132908865532,-0.00024133295571,-0.12931586802,-5.62667823445e-07,9.9026966095,-0.002153,0.020744,0.075806,-0.013337,0.103464,0.093086
1467,5400000000.0,0.0138630894287,0.000184402451847,20.7125874253,0.999999087095,-4.04790082242e-06,0.00132968662925,-0.000240261144531,-0.129417464137,-8.58306862916e-07,9.91005802155,-0.002153,0.020744,0.075806,-0.013337,0.103464,0.093086
1468,5410000000.0,0.0141013854896,0.000185012817376,20.8120444589,0.999999104456,-1.38234950647e-06,0.00131646174251,-0.000240860745047,-0.126414641738,-1.47819514762e-06,9.94487857819,-0.002153,0.020744,0.075806,-0.013337,0.103464,0.093086
1469,5420000000.0,0.0143160347848,0.000184097210873,20.9115742063,0.999999133754,1.90905796549e-06,0.00129422409887,-0.000239732534053,-0.124005168676,2.53677353523e-06,9.95233821869,-0.002153,0.020744,0.075806,-0.013337,0.103464,0.093086
1470,5430000000.0,0.0145117958506,0.000184555072337,21.0114523438,0.999999174199,6.13528044952e-06,0.00126242538167,-0.00024051265844,-0.121690735221,-2.09808350249e-07,9.98700809479,-0.002153,0.020744,0.075806,-0.013337,0.103464,0.093086
1471,5440000000.0,0.0146915366484,0.000183715834282,21.111403513,0.99999922094,1.02471747382e-05,0.0012250689238,-0.000239206159745,-0.119988515973,-7.05719005012e-07,9.99450016022,-0.002153,0.020744,0.075806,-0.013337,0.103464,0.093086
1472,5450000000.0,0.0148562235719,0.000184211647138,21.2117012047,0.999999273497,1.44836923209e-05,0.00118118663344,-0.000239985561041,-0.118234105408,-1.11579891104e-06,10.0290250778,-0.002153,0.020744,0.075806,-0.013337,0.103464,0.093086
1473,5460000000.0,0.0150087022345,0.000183410593305,21.3120722063,0.999999327911,1.81612480495e-05,0.00113440728259,-0.00023867773056,-0.117042928934,-2.86102306291e-08,10.0365581512,-0.002153,0.020744,0.075806,-0.013337,0.103464,0.093086
1474,5470000000.0,0.0151499539287,0.000183830270544,21.4127885781,0.999999383571,2.16081979965e-05,0.00108399783185,-0.000239455413851,-0.11585059762,-4.10079936231e-07,10.0709352493,-0.002153,0.020744,0.075806,-0.013337,0.103464,0.093086
1475,5480000000.0,0.015282799437,0.000182991032485,21.5135794914,0.999999438278,2.44052687209e-05,0.00103255140738,-0.000238086259806,-0.115009382367,-1.12533564511e-06,10.0785150528,-0.002153,0.020744,0.075806,-0.013337,0.103464,0.093086
1476,5490000000.0,0.0154006258342,0.000183525029568,21.6147135897,0.999999492141,2.70143048576e-05,0.00097872581255,-0.000238921951942,-0.113998055458,-1.98364250625e-06,10.1127443314,-0.002153,0.020744,0.075806,-0.013337,0.103464,0.093086
1477,5500000000.0,0.0155138555698,0.000182762159968,21.7159227461,0.999999543705,2.90420896605e-05,0.000924786497654,-0.00023773027417,-0.113293200731,-4.95910629006e-07,10.1203746796,-0.002153,0.020744,0.075806,-0.013337,0.103464,0.093086
1478,5510000000.0,0.0156235220808,0.000183257972822,21.8174740145,0.999999592206,3.07549521883e-05,0.000870525229461,-0.000238385825436,-0.112711697817,1.81198116067e-07,10.1544551849,-0.002153,0.020744,0.075806,-0.013337,0.103464,0.093086
1479,5520000000.0,0.0157209592247,0.00018241873477,21.9191006192,0.999999637055,3.18666901089e-05,0.000817670639593,-0.000237252604307,-0.112344548106,1.77383424038e-06,10.1621351242,-0.002153,0.020744,0.075806,-0.013337,0.103464,0.093086
