frame,timestamp,acc x (m/s^2),acc y (m/s^2),acc z (m/s^2),gyro x (rad/s),gyro y (rad/s),gyro z (rad/s),x (Ground truth),y (Ground truth),z (Ground truth),yaw (Ground Truth),pitch (Ground Truth),roll (Ground Truth)
853,21.56302043027972,0.0,-0.0,0.010000228881835938,-0.0,-0.0,-0.0,-23.800546646118164,61.24238586425781,0.09412002563476562,-0.5967352390289307,-0.0,0.0
854,21.573020430056204,0.0,-0.0,0.01007843017578125,-0.0,-0.0,-0.0,-23.800546646118164,61.24238586425781,0.0902000442147255,-0.5967352390289307,-0.0,0.0
855,21.583020429832686,0.0,-0.0,0.009688377380371094,-0.0,-0.0,-0.0,-23.800546646118164,61.24238586425781,0.0853000208735466,-0.5967352390289307,-0.0,0.0
856,21.59302042960917,0.0,-0.0,0.01007843017578125,-0.0,-0.0,-0.0,-23.800546646118164,61.24238586425781,0.07942001521587372,-0.5967352390289307,-0.0,0.0
857,21.60302042938565,0.0,-0.0,3.618281841278076,7.764093425066676e-06,3.1802646844880655e-06,3.052793478078297e-14,-23.800546646118164,61.24238586425781,0.07292083650827408,-0.5967352390289307,-0.0,0.0
858,21.613020429162134,0.0,-0.0,15.623672485351562,3.7483478081412613e-06,2.2674150841339724e-06,1.2305662044909127e-10,-23.800546646118164,61.24238586425781,0.06700301915407181,-0.5967352390289307,-0.0,0.0
859,21.623020428938617,0.0,-0.0,14.684375762939453,2.439925310682156e-06,1.6787168988230405e-06,-1.0622225321554879e-10,-23.800546646118164,61.24238586425781,0.06157264485955238,-0.5967352390289307,-0.0,0.0
860,21.6330204287151,0.0,-0.0,14.286523818969727,2.609408966236515e-06,1.7602388879822684e-06,-1.2580575470266808e-11,-23.800546646118164,61.24238586425781,0.05658992752432823,-0.5967352390289307,-0.0,0.0
861,21.64302042849158,0.0,-0.0,13.921133041381836,2.7156618216395145e-06,1.1194910030098981e-06,-7.372980004305418e-11,-23.800546646118164,61.24238586425781,0.05201831832528114,-0.5967352390289307,-0.0,0.0
862,21.653020428268064,0.0,-0.0,13.585039138793945,2.1767066300526494e-06,1.5096852621354628e-06,-1.133676486020363e-12,-23.800546646118164,61.24238586425781,0.04782421141862869,-0.5967352390289307,-0.0,0.0
863,21.663020428044547,0.0,-0.0,13.276406288146973,7.206526220215892e-07,8.39585197809356e-07,-1.248986469803981e-10,-23.800546646118164,61.24238586425781,0.04397674277424812,-0.5967352390289307,-0.0,0.0
864,21.67302042782103,0.0,-0.0,12.992578506469727,7.640011858711659e-07,1.442740824586508e-07,-1.120500914275624e-11,-23.800546646118164,61.24238586425781,0.04044754058122635,-0.5967352390289307,-0.0,0.0
865,21.683020427597512,0.0,-0.0,12.731719017028809,1.5151132402024814e-06,5.051587663729151e-07,-3.6573744033319144e-11,-23.800546646118164,61.24238586425781,0.03721050173044205,-0.5967352390289307,-0.0,0.0
866,21.693020427373995,0.0,-0.0,12.492071151733398,1.5397897641378222e-06,5.098428346173023e-07,1.719631381735809e-11,-23.800546646118164,61.24238586425781,0.034241676330566406,-0.5967352390289307,-0.0,0.0
867,21.703020427150477,0.0,-0.0,12.272031784057617,9.341625855086022e-07,1.627390133762674e-07,-1.1637707464373648e-10,-23.800546646118164,61.24238586425781,0.031519051641225815,-0.5967352390289307,-0.0,0.0
868,21.71302042692696,0.0,-0.0,12.069063186645508,2.96973912128351e-08,5.132670253260585e-07,3.8845510141882755e-11,-23.800546646118164,61.24238586425781,0.029022330418229103,-0.5967352390289307,-0.0,0.0
869,21.723020426703442,0.0,-0.0,11.883652687072754,4.4065725290920454e-08,-1.8750408514733863e-07,-9.503517417464025e-11,-23.800546646118164,61.24238586425781,0.026732977479696274,-0.5967352390289307,-0.0,0.0
870,21.733020426479925,0.0,-0.0,11.712793350219727,2.661942488657587e-08,-2.063637651872341e-07,-2.085798200823774e-11,-23.800546646118164,61.24238586425781,0.024633903056383133,-0.5967352390289307,-0.0,0.0
871,21.743020426256408,0.0,-0.0,11.555976867675781,-1.284427497694196e-08,4.907338393422833e-07,1.0381204229581442e-10,-23.800546646118164,61.24238586425781,0.022709425538778305,-0.5967352390289307,-0.0,0.0
872,21.75302042603289,0.0,-0.0,11.41177749633789,8.689244168635923e-07,1.3181329450162593e-07,-4.6278411658384755e-11,-23.800546646118164,61.24238586425781,0.020945128053426743,-0.5967352390289307,-0.0,0.0
873,21.763020425809373,0.0,-0.0,11.279824256896973,-5.086518939378948e-08,4.635485026938113e-07,5.956957149777509e-12,-23.800546646118164,61.24238586425781,0.019327811896800995,-0.5967352390289307,-0.0,0.0
874,21.773020425585855,0.0,-0.0,11.158105850219727,-7.302086828531174e-07,9.872711359548703e-08,-8.63782378957012e-11,-23.800546646118164,61.24238586425781,0.017845306545495987,-0.5967352390289307,-0.0,0.0
875,21.783020425362338,0.0,-0.0,11.046719551086426,-7.823010719221202e-07,7.71320074477444e-08,5.739980712959891e-11,-23.800546646118164,61.24238586425781,0.016486473381519318,-0.5967352390289307,-0.0,0.0
876,21.79302042513882,0.0,-0.0,10.944501876831055,5.400851819103991e-07,6.188166423726216e-08,-1.4306555939924692e-11,-23.800546646118164,61.24238586425781,0.015241088345646858,-0.5967352390289307,-0.0,0.0
877,21.803020424915303,0.0,-0.0,10.850263595581055,7.514868798352836e-07,-6.676468728983309e-07,-8.758452296753205e-11,-23.800546646118164,61.24238586425781,0.014099731110036373,-0.5967352390289307,-0.0,0.0
878,21.813020424691786,0.0,-0.0,10.764433860778809,-1.4852145113763981e-07,3.6056295016351214e-07,5.739447805908071e-11,-23.800546646118164,61.24238586425781,0.013053817674517632,-0.5967352390289307,-0.0,0.0
879,21.823020424468268,0.0,-0.0,10.684717178344727,7.097777370290714e-07,1.2333323251567663e-09,1.890160250539452e-11,-23.800546646118164,61.24238586425781,0.01209537498652935,-0.5967352390289307,-0.0,0.0
880,21.83302042424475,0.0,-0.0,10.612607955932617,-1.9379618265702447e-07,3.291761174750718e-07,7.475478569496374e-12,-23.800546646118164,61.24238586425781,0.011217193678021431,-0.5967352390289307,-0.0,0.0
881,21.843020424021233,0.0,-0.0,10.545478820800781,-8.981349424175278e-07,-7.40166399282316e-07,-4.521816254765554e-11,-23.800546646118164,61.24238586425781,0.010412558913230896,-0.5967352390289307,-0.0,0.0
882,21.853020423797716,0.0,-0.0,10.484434127807617,6.55069925414864e-07,-5.8070035890978033e-08,4.4403439258822175e-11,-23.800546646118164,61.24238586425781,0.009675368666648865,-0.5967352390289307,-0.0,0.0
883,21.8630204235742,0.0,-0.0,10.428369522094727,-2.5551761950737273e-07,3.005783923981653e-07,1.7881252034612771e-12,-23.800546646118164,61.24238586425781,0.009000015445053577,-0.5967352390289307,-0.0,0.0
884,21.87302042335068,0.0,-0.0,10.376855850219727,-2.9768784770567436e-07,-4.000862077191414e-07,-1.3769152484854885e-11,-23.800546646118164,61.24238586425781,0.008381347171962261,-0.5967352390289307,-0.0,0.0
885,21.883020423127164,0.0,-0.0,10.329946517944336,-3.065360658638383e-07,2.7900779286937905e-07,4.345132587069145e-11,-23.800546646118164,61.24238586425781,0.007814674638211727,-0.5967352390289307,-0.0,0.0
886,21.893020422903646,0.0,-0.0,10.2860746383667,-3.5071511206297146e-07,-4.451780739600508e-07,-1.488331680121746e-11,-23.800546646118164,61.24238586425781,0.0072956085205078125,-0.5967352390289307,-0.0,0.0
887,21.90302042268013,0.0,-0.0,10.2464017868042,5.232237754171365e-07,-9.777975407132544e-08,6.610481606550422e-11,-23.800546646118164,61.24238586425781,0.006820182781666517,-0.5967352390289307,-0.0,0.0
888,21.91302042245661,0.0,-0.0,10.210165977478027,-3.8245889300014824e-07,2.5234709255528287e-07,4.4157691392321397e-11,-23.800546646118164,61.24238586425781,0.006384773179888725,-0.5967352390289307,-0.0,0.0
889,21.923020422233094,0.0,-0.0,10.176587104797363,-3.9053091427376785e-07,-4.5639814061360084e-07,-3.432598649766305e-11,-23.800546646118164,61.24238586425781,0.005986022762954235,-0.5967352390289307,-0.0,0.0
890,21.933020422009577,0.0,-0.0,10.1456937789917,-3.8456875017800485e-07,2.419708380330121e-07,3.120165237291417e-11,-23.800546646118164,61.24238586425781,0.00562084186822176,-0.5967352390289307,-0.0,0.0
891,21.94302042178606,0.0,-0.0,10.118232727050781,4.6794258423688007e-07,-1.1739359706552932e-07,4.786748775131855e-11,-23.800546646118164,61.24238586425781,0.005286483559757471,-0.5967352390289307,-0.0,0.0
892,21.95302042156254,0.0,-0.0,10.091904640197754,4.850401751355093e-07,-1.1839097879828842e-07,1.427915945206859e-12,-23.800546646118164,61.24238586425781,0.004980315919965506,-0.5967352390289307,-0.0,0.0
893,21.963020421339024,0.0,-0.0,10.068252563476562,-4.001828983746236e-07,2.3261230808202527e-07,-1.3946455101887523e-11,-23.800546646118164,61.24238586425781,0.004699973855167627,-0.5967352390289307,-0.0,0.0
894,21.973020421115507,0.0,-0.0,10.046895027160645,4.718627053534874e-07,-1.1880390360374804e-07,-1.2869705301454815e-12,-23.800546646118164,61.24238586425781,0.004443320911377668,-0.5967352390289307,-0.0,0.0
895,21.98302042089199,0.0,-0.0,10.0266752243042,-4.240089879203879e-07,2.3313296537708084e-07,4.047980700638831e-11,-23.800546646118164,61.24238586425781,0.004208335652947426,-0.5967352390289307,-0.0,0.0
896,21.993020420668472,0.0,-0.0,10.008745193481445,-4.3267934302093636e-07,2.3035335061649675e-07,2.0913840104164194e-11,-23.800546646118164,61.24238586425781,0.003993224818259478,-0.5967352390289307,-0.0,0.0
897,22.003020420444955,0.0,-0.0,9.991963386535645,4.471645240755606e-07,-1.3524832809252985e-07,3.224054356820716e-11,-23.800546646118164,61.24238586425781,0.0037963103968650103,-0.5967352390289307,-0.0,0.0
898,22.013020420221437,0.0,-0.0,9.976699829101562,1.3729361398873152e-06,-4.948279297423142e-07,-3.448011667850359e-11,-23.800546646118164,61.24238586425781,0.003616065951064229,-0.5967352390289307,-0.0,0.0
899,22.02302041999792,0.0,-0.0,9.962591171264648,-3.934179915177083e-07,2.033625889907853e-07,-8.087974734394265e-14,-23.800546646118164,61.24238586425781,0.0034510802943259478,-0.5967352390289307,-0.0,0.0
900,22.033020419774402,0.0,-0.0,9.950000762939453,-4.0721374716667924e-07,2.0158056202035368e-07,-2.01899885698964e-11,-23.800546646118164,61.24238586425781,0.00330009451135993,-0.5967352390289307,-0.0,0.0
901,22.043020419550885,0.0,-0.0,9.937790870666504,-4.3979085262435547e-07,1.9836156184283027e-07,-3.9052303058007e-12,-23.800546646118164,61.24238586425781,0.0031618881039321423,-0.5967352390289307,-0.0,0.0
902,22.053020419327368,0.0,-0.0,9.92749309539795,-4.729974705242057e-07,2.0172879544588795e-07,-7.386855016555671e-12,-23.800546646118164,61.24238586425781,0.003035430796444416,-0.5967352390289307,-0.0,0.0
903,22.06302041910385,0.0,-0.0,9.917192459106445,1.282614107367408e-06,-5.171975203666079e-07,-2.3988533381924526e-11,-23.800546646118164,61.24238586425781,0.002919693011790514,-0.5967352390289307,-0.0,0.0
904,22.073020418880333,0.0,-0.0,9.90842056274414,4.0456367855767894e-07,-1.7662785012362292e-07,-2.03839167767228e-11,-23.800546646118164,61.24238586425781,0.002813796978443861,-0.5967352390289307,-0.0,0.0
905,22.083020418656815,0.0,-0.0,9.899646759033203,-4.960713226864755e-07,1.6737125463350822e-07,2.0616841567289157e-13,-23.800546646118164,61.24238586425781,0.0027168653905391693,-0.5967352390289307,-0.0,0.0
906,22.093020418433298,0.0,-0.0,9.8923978805542,3.7384413076324563e-07,-1.9109870663669426e-07,-4.1648677562289294e-11,-23.800546646118164,61.24238586425781,0.002628173679113388,-0.5967352390289307,-0.0,0.0
907,22.10302041820978,0.0,-0.0,9.885530471801758,-5.434366130430135e-07,1.472182304951275e-07,5.128050761804559e-11,-23.800546646118164,61.24238586425781,0.002547035226598382,-0.5967352390289307,-0.0,0.0
908,22.113020417986263,0.0,-0.0,9.879048347473145,3.474306140560657e-07,-1.9998869049686618e-07,-5.194825125620639e-11,-23.800546646118164,61.24238586425781,0.0024728011339902878,-0.5967352390289307,-0.0,0.0
909,22.123020417762746,0.0,-0.0,9.873323440551758,-5.593064429376682e-07,1.5668473452024045e-07,4.8327175594664595e-12,-23.800546646118164,61.24238586425781,0.0024048995692282915,-0.5967352390289307,-0.0,0.0
910,22.133020417539228,0.0,-0.0,9.8679838180542,2.9576409588116803e-07,-1.928091393210707e-07,1.108854674747306e-11,-23.800546646118164,61.24238586425781,0.0023427961859852076,-0.5967352390289307,-0.0,0.0
911,22.14302041731571,0.0,-0.0,9.862642288208008,-6.016594511493167e-07,1.6525974899650464e-07,1.0807743588969743e-12,-23.800546646118164,61.24238586425781,0.0022859573364257812,-0.5967352390289307,-0.0,0.0
912,22.153020417092193,0.0,-0.0,9.858448028564453,2.5720822804942145e-07,-1.889577561087208e-07,4.766770311803725e-12,-23.800546646118164,61.24238586425781,0.002233962994068861,-0.5967352390289307,-0.0,0.0
913,22.163020416868676,0.0,-0.0,9.854634284973145,2.523643445329071e-07,-1.913286240551315e-07,1.2634525370369687e-11,-23.800546646118164,61.24238586425781,0.002186431782320142,-0.5967352390289307,-0.0,0.0
914,22.17302041664516,0.0,-0.0,9.850435256958008,2.49479995773072e-07,-2.002768155762169e-07,6.4382804643159375e-12,-23.800546646118164,61.24238586425781,0.002142944373190403,-0.5967352390289307,-0.0,0.0
915,22.18302041642164,0.0,-0.0,9.847002029418945,2.6920079676528985e-07,-2.003118595439446e-07,-4.454653312890855e-11,-23.800546646118164,61.24238586425781,0.0021031571086496115,-0.5967352390289307,-0.0,0.0
916,22.193020416198124,0.0,-0.0,9.84433364868164,-6.261927296691283e-07,1.488257055370923e-07,-6.499106808277588e-12,-23.800546646118164,61.24238586425781,0.0020668029319494963,-0.5967352390289307,-0.0,0.0
917,22.203020415974606,0.0,-0.0,9.840898513793945,-6.363745796988951e-07,1.5076530246460607e-07,-1.934635784905936e-11,-23.800546646118164,61.24238586425781,0.0020335388835519552,-0.5967352390289307,-0.0,0.0
918,22.21302041575109,0.0,-0.0,9.838229179382324,-6.6476530946602e-07,1.4846564511117322e-07,3.169273177228149e-11,-23.800546646118164,61.24238586425781,0.00200309744104743,-0.5967352390289307,-0.0,0.0
919,22.22302041552757,0.0,-0.0,9.836320877075195,2.1708616770865774e-07,-2.020480707187744e-07,-1.6557033521991116e-12,-23.800546646118164,61.24238586425781,0.0019752883818000555,-0.5967352390289307,-0.0,0.0
920,22.233020415304054,0.0,-0.0,9.83365249633789,8.766423889028374e-07,1.453906861570431e-07,4.001594888780602e-11,-23.800546646118164,61.24238586425781,0.0019498442998155951,-0.5967352390289307,-0.0,0.0
921,22.243020415080537,0.0,-0.0,9.831743240356445,2.3119019942896557e-07,-2.0301779102283035e-07,-7.992506656506748e-11,-23.800546646118164,61.24238586425781,0.0019265746232122183,-0.5967352390289307,-0.0,0.0
922,22.25302041485702,0.0,-0.0,9.82983684539795,-6.741089464412653e-07,1.4564034245267976e-07,-1.6281975767640233e-12,-23.800546646118164,61.24238586425781,0.0019052886636927724,-0.5967352390289307,-0.0,0.0
923,22.263020414633502,0.0,-0.0,9.8283109664917,-7.006702276157739e-07,1.476109332543274e-07,3.2271352257140506e-11,-23.800546646118164,61.24238586425781,0.0018858336843550205,-0.5967352390289307,-0.0,0.0
924,22.273020414409984,0.0,-0.0,9.82678508758545,-7.172804998845095e-07,1.4481835819424305e-07,2.6344260106725415e-11,-23.800546646118164,61.24238586425781,0.0018680571811273694,-0.5967352390289307,-0.0,0.0
925,22.283020414186467,0.0,-0.0,9.987765312194824,-0.0,-0.0,-0.0,-23.800546646118164,61.24238586425781,0.0018680571811273694,-0.5967352390289307,-0.0,0.0
926,22.29302041396295,0.0,-0.0,9.8100004196167,-0.0,-0.0,-0.0,-23.800546646118164,61.24238586425781,0.0018680571811273694,-0.5967352390289307,-0.0,0.0
927,22.303020413739432,0.0,-0.0,9.8100004196167,-0.0,-0.0,-0.0,-23.800546646118164,61.24238586425781,0.0018680571811273694,-0.5967352390289307,-0.0,0.0
928,22.313020413515915,0.0,-0.0,9.8100004196167,-0.0,-0.0,-0.0,-23.800546646118164,61.24238586425781,0.0018680571811273694,-0.5967352390289307,-0.0,0.0
929,22.323020413292397,0.0,-0.0,9.8100004196167,-0.0,-0.0,-0.0,-23.800546646118164,61.24238586425781,0.0018680571811273694,-0.5967352390289307,-0.0,0.0
930,22.33302041306888,0.0,-0.0,9.8100004196167,-0.0,-0.0,-0.0,-23.800546646118164,61.24238586425781,0.0018680571811273694,-0.5967352390289307,-0.0,0.0
931,22.343020412845362,0.0,-0.0,9.8100004196167,-0.0,-0.0,-0.0,-23.800546646118164,61.24238586425781,0.0018680571811273694,-0.5967352390289307,-0.0,0.0
932,22.353020412621845,0.0,-0.0,9.8100004196167,-0.0,-0.0,-0.0,-23.800546646118164,61.24238586425781,0.0018680571811273694,-0.5967352390289307,-0.0,0.0
933,22.363020412398328,0.0,-0.0,9.8100004196167,-0.0,-0.0,-0.0,-23.800546646118164,61.24238586425781,0.0018680571811273694,-0.5967352390289307,-0.0,0.0
934,22.37302041217481,0.0,-0.0,9.8100004196167,-0.0,-0.0,-0.0,-23.800546646118164,61.24238586425781,0.0018680571811273694,-0.5967352390289307,-0.0,0.0
935,22.383020411951293,0.0,-0.0,9.8100004196167,-0.0,-0.0,-0.0,-23.800546646118164,61.24238586425781,0.0018680571811273694,-0.5967352390289307,-0.0,0.0
936,22.393020411727775,0.0,-0.0,9.8100004196167,-0.0,-0.0,-0.0,-23.800546646118164,61.24238586425781,0.0018680571811273694,-0.5967352390289307,-0.0,0.0
937,22.403020411504258,0.0,-0.0,9.8100004196167,-0.0,-0.0,-0.0,-23.800546646118164,61.24238586425781,0.0018680571811273694,-0.5967352390289307,-0.0,0.0
938,22.41302041128074,0.0,-0.0,9.8100004196167,-0.0,-0.0,-0.0,-23.800546646118164,61.24238586425781,0.0018680571811273694,-0.5967352390289307,-0.0,0.0
939,22.423020411057223,0.0,-0.0,9.8100004196167,-0.0,-0.0,-0.0,-23.800546646118164,61.24238586425781,0.0018680571811273694,-0.5967352390289307,-0.0,0.0
940,22.433020410833706,0.0,-0.0,9.8100004196167,-0.0,-0.0,-0.0,-23.800546646118164,61.24238586425781,0.0018680571811273694,-0.5967352390289307,-0.0,0.0
941,22.44302041061019,0.0,-0.0,9.8100004196167,-0.0,-0.0,-0.0,-23.800546646118164,61.24238586425781,0.0018680571811273694,-0.5967352390289307,-0.0,0.0
942,22.45302041038667,0.0,-0.0,9.8100004196167,-0.0,-0.0,-0.0,-23.800546646118164,61.24238586425781,0.0018680571811273694,-0.5967352390289307,-0.0,0.0
943,22.463020410163153,0.0,-0.0,9.8100004196167,-0.0,-0.0,-0.0,-23.800546646118164,61.24238586425781,0.0018680571811273694,-0.5967352390289307,-0.0,0.0
944,22.473020409939636,0.0,-0.0,9.8100004196167,-0.0,-0.0,-0.0,-23.800546646118164,61.24238586425781,0.0018680571811273694,-0.5967352390289307,-0.0,0.0
945,22.48302040971612,0.0,-0.0,9.8100004196167,-0.0,-0.0,-0.0,-23.800546646118164,61.24238586425781,0.0018680571811273694,-0.5967352390289307,-0.0,0.0
946,22.4930204094926,0.0,-0.0,9.8100004196167,-0.0,-0.0,-0.0,-23.800546646118164,61.24238586425781,0.0018680571811273694,-0.5967352390289307,-0.0,0.0
947,22.503020409269084,0.0,-0.0,9.8100004196167,-0.0,-0.0,-0.0,-23.800546646118164,61.24238586425781,0.0018680571811273694,-0.5967352390289307,-0.0,0.0
948,22.513020409045566,0.0,-0.0,9.8100004196167,-0.0,-0.0,-0.0,-23.800546646118164,61.24238586425781,0.0018680571811273694,-0.5967352390289307,-0.0,0.0
949,22.52302040882205,0.0,-0.0,9.8100004196167,-0.0,-0.0,-0.0,-23.800546646118164,61.24238586425781,0.0018680571811273694,-0.5967352390289307,-0.0,0.0
950,22.53302040859853,0.0,-0.0,9.8100004196167,-0.0,-0.0,-0.0,-23.800546646118164,61.24238586425781,0.0018680571811273694,-0.5967352390289307,-0.0,0.0
951,22.543020408375014,0.0,-0.0,9.8100004196167,-0.0,-0.0,-0.0,-23.800546646118164,61.24238586425781,0.0018680571811273694,-0.5967352390289307,-0.0,0.0
952,22.553020408151497,0.0,-0.0,9.8100004196167,-0.0,-0.0,-0.0,-23.800546646118164,61.24238586425781,0.0018680571811273694,-0.5967352390289307,-0.0,0.0
953,22.56302040792798,0.0,-0.0,9.8100004196167,-0.0,-0.0,-0.0,-23.800546646118164,61.24238586425781,0.0018680571811273694,-0.5967352390289307,-0.0,0.0
954,22.573020407704462,0.0,-0.0,9.187824249267578,8.296945566144132e-07,-3.476048675565835e-07,9.90720838700554e-11,-23.800546646118164,61.24238586425781,0.0018058394780382514,-0.5967352390289307,-0.0,0.0
955,22.583020407480944,0.0,-0.0,9.905366897583008,8.514904266121448e-07,-3.528504066707683e-07,-8.771872117563362e-13,-23.800546646118164,61.24238586425781,0.001753158518113196,-0.5967352390289307,-0.0,0.0
956,22.593020407257427,0.0,-0.0,9.89392375946045,1.79934886546107e-07,3.773959811326222e-09,7.440209559561595e-11,-23.800546646118164,61.24238586425781,0.0017088699387386441,-0.5967352390289307,-0.0,0.0
957,22.60302040703391,0.0,-0.0,9.88286304473877,8.537203370906354e-07,3.5407720133662224e-07,3.6451827667427494e-11,-23.800546646118164,61.24238586425781,0.001671867328695953,-0.5967352390289307,-0.0,0.0
958,22.613020406810392,0.0,-0.0,9.872941017150879,-3.791717517742654e-08,1.0460401433931565e-08,-2.0785671794865124e-11,-23.800546646118164,61.24238586425781,0.0016411590622738004,-0.5967352390289307,-0.0,0.0
959,22.623020406586875,0.0,-0.0,9.865314483642578,8.402955700148595e-07,-3.381899489340867e-07,1.0331180355649394e-12,-23.800546646118164,61.24238586425781,0.001615982037037611,-0.5967352390289307,-0.0,0.0
960,22.633020406363357,0.0,-0.0,9.857685089111328,-4.931013819486907e-08,1.656401238392391e-08,-3.3573144264664734e-13,-23.800546646118164,61.24238586425781,0.001595573383383453,-0.5967352390289307,-0.0,0.0
961,22.64302040613984,0.0,-0.0,9.851198196411133,-7.608613117326968e-08,2.6074500780737253e-08,4.53725945703809e-12,-23.800546646118164,61.24238586425781,0.00157928466796875,-0.5967352390289307,-0.0,0.0
962,22.653020405916322,0.0,-0.0,9.84585952758789,-1.0081276258233629e-07,3.27251541420992e-08,5.810924658122829e-12,-23.800546646118164,61.24238586425781,0.0015665816608816385,-0.5967352390289307,-0.0,0.0
963,22.663020405692805,0.0,-0.0,9.840517044067383,-1.2534576399048092e-07,4.1731826883051326e-08,6.0766426612790525e-12,-23.800546646118164,61.24238586425781,0.0015569304814562201,-0.5967352390289307,-0.0,0.0
964,22.673020405469288,0.0,-0.0,9.83594036102295,7.653901690218845e-08,4.8337600588865826e-08,7.33581251299853e-12,-23.800546646118164,61.24238586425781,0.0015498732682317495,-0.5967352390289307,-0.0,0.0
965,22.68302040524577,0.0,-0.0,9.83212661743164,-1.7640508076510741e-07,5.7393251040593896e-08,-9.602076078696342e-12,-23.800546646118164,61.24238586425781,0.0015450286446139216,-0.5967352390289307,-0.0,0.0
966,22.693020405022253,0.0,-0.0,9.828691482543945,-2.131828722440332e-07,6.123722329220982e-08,4.1954190121984425e-11,-23.800546646118164,61.24238586425781,0.001542053185403347,-0.5967352390289307,-0.0,0.0
967,22.703020404798735,0.0,-0.0,9.826022148132324,-2.2686276679451112e-07,7.069736795983772e-08,5.5271009991031406e-11,-23.800546646118164,61.24238586425781,0.0015406799502670765,-0.5967352390289307,-0.0,0.0
968,22.713020404575218,0.0,-0.0,9.82373332977295,-2.799117382323857e-08,7.400689838732433e-08,3.004690246610764e-12,-23.800546646118164,61.24238586425781,0.0015406799502670765,-0.5967352390289307,-0.0,0.0
969,22.7230204043517,0.0,-0.0,9.820301055908203,6.261665248530335e-07,-2.6986225520886364e-07,-4.22714988013162e-11,-23.800546646118164,61.24238586425781,0.0015417098766192794,-0.5967352390289307,-0.0,0.0
970,22.733020404128183,0.0,-0.0,9.819536209106445,-2.9025326853115985e-07,8.682795282766165e-08,1.1155340540192071e-11,-23.800546646118164,61.24238586425781,0.0015436934772878885,-0.5967352390289307,-0.0,0.0
971,22.743020403904666,0.0,-0.0,9.81724739074707,5.75246872358548e-07,-2.56556432987054e-07,-3.432159417782188e-11,-23.800546646118164,61.24238586425781,0.001546401996165514,-0.5967352390289307,-0.0,0.0
972,22.75302040368115,0.0,-0.0,9.8161039352417,-1.1710329061997982e-07,9.726509375695969e-08,2.419795613883835e-11,-23.800546646118164,61.24238586425781,0.0015497207641601562,-0.5967352390289307,-0.0,0.0
973,22.76302040345763,0.0,-0.0,9.814579010009766,-1.4219065747056447e-07,1.0535795524901914e-07,-3.057635741821052e-12,-23.800546646118164,61.24238586425781,0.001553497277200222,-0.5967352390289307,-0.0,0.0
974,22.773020403234113,0.0,-0.0,9.813432693481445,-3.898394140833261e-07,1.1440467062584503e-07,-1.3058013004219049e-11,-23.800546646118164,61.24238586425781,0.0015576170990243554,-0.5967352390289307,-0.0,0.0
975,22.783020403010596,0.0,-0.0,9.812671661376953,-4.229106309594499e-07,1.1635525254405366e-07,3.992198238655931e-11,-23.800546646118164,61.24238586425781,0.0015620040940120816,-0.5967352390289307,-0.0,0.0
976,22.79302040278708,0.0,-0.0,9.811906814575195,-4.2799990751518635e-07,1.2391450354698463e-07,-1.430383589351436e-11,-23.800546646118164,61.24238586425781,0.0015665816608816385,-0.5967352390289307,-0.0,0.0
977,22.80302040256356,0.0,-0.0,9.81114387512207,4.228631098612823e-07,-2.2560028867246729e-07,1.5061674130123492e-11,-23.800546646118164,61.24238586425781,0.0015712737804278731,-0.5967352390289307,-0.0,0.0
978,22.813020402340044,0.0,-0.0,9.810382843017578,-4.8545729214311e-07,1.230619375292008e-07,4.703284983698097e-11,-23.800546646118164,61.24238586425781,0.0015760039677843451,-0.5967352390289307,-0.0,0.0
979,22.823020402116526,0.0,-0.0,9.810382843017578,-4.958397425980365e-07,1.2500065338372224e-07,2.6882968073849156e-11,-23.800546646118164,61.24238586425781,0.0015807723393663764,-0.5967352390289307,-0.0,0.0
980,22.83302040189301,0.0,-0.0,9.80961799621582,-5.137179073244624e-07,1.2692690631865844e-07,3.119624003566912e-11,-23.800546646118164,61.24238586425781,0.0015855026431381702,-0.5967352390289307,-0.0,0.0
981,22.84302040166949,0.0,-0.0,9.80961799621582,-5.302572390064597e-07,1.2366261614715768e-07,2.6121715901439302e-11,-23.800546646118164,61.24238586425781,0.001590194646269083,-0.5967352390289307,-0.0,0.0
982,22.853020401445974,0.0,-0.0,9.808856964111328,1.2453029967218754e-06,-5.806929834761831e-07,-3.0688424024205574e-11,-23.800546646118164,61.24238586425781,0.0015947723295539618,-0.5967352390289307,-0.0,0.0
983,22.863020401222457,0.0,-0.0,9.808856964111328,-5.363744435271656e-07,1.1939026478557935e-07,1.3307799306971901e-11,-23.800546646118164,61.24238586425781,0.0015992354601621628,-0.5967352390289307,-0.0,0.0
984,22.87302040099894,0.0,-0.0,9.808854103088379,-5.510365781447035e-07,1.274938341566667e-07,-1.2462780807354079e-11,-23.800546646118164,61.24238586425781,0.0016035842709243298,-0.5967352390289307,-0.0,0.0
985,22.883020400775422,0.0,-0.0,9.808857917785645,3.150219924918929e-07,-2.3100338353287952e-07,1.6760148824346288e-11,-23.800546646118164,61.24238586425781,0.001607818529009819,-0.5967352390289307,-0.0,0.0
986,22.893020400551904,0.0,-0.0,9.80809211730957,-5.583158895205997e-07,1.1993654425168643e-07,4.032144410026639e-11,-23.800546646118164,61.24238586425781,0.0016118620987981558,-0.5967352390289307,-0.0,0.0
987,22.903020400328387,0.0,-0.0,9.808855056762695,9.529530871077441e-07,1.292082600912181e-07,-1.5563350608260862e-10,-23.800546646118164,61.24238586425781,0.0016157912323251367,-0.5967352390289307,-0.0,0.0
988,22.91302040010487,0.0,-0.0,9.80809497833252,3.012855813722126e-07,-2.2203212779459136e-07,6.427047782864292e-11,-23.800546646118164,61.24238586425781,0.001619529677554965,-0.5967352390289307,-0.0,0.0
989,22.923020399881352,0.0,-0.0,9.8084716796875,2.9385395805547887e-07,-2.234608160733842e-07,-1.555736095504301e-11,-23.800546646118164,61.24238586425781,0.0016231155022978783,-0.5967352390289307,-0.0,0.0
990,22.933020399657835,0.0,-0.0,9.808477401733398,2.9875369023102394e-07,4.7448494910895533e-07,6.991045936599605e-11,-23.800546646118164,61.24238586425781,0.0016265487065538764,-0.5967352390289307,-0.0,0.0
991,22.943020399434317,0.0,-0.0,9.8084716796875,-5.972074177407194e-07,1.309133352833669e-07,2.5155766358864184e-11,-23.800546646118164,61.24238586425781,0.0016298294067382812,-0.5967352390289307,-0.0,0.0
992,22.9530203992108,0.0,-0.0,9.80809497833252,-6.159566510177683e-07,1.3421771427601925e-07,-4.213068782732421e-11,-23.800546646118164,61.24238586425781,0.0016329193022102118,-0.5967352390289307,-0.0,0.0
993,22.963020398987283,0.0,-0.0,9.80847454071045,1.141517145697435e-06,-5.701247687284194e-07,-2.0735790862147496e-10,-23.800546646118164,61.24238586425781,0.0016358565771952271,-0.5967352390289307,-0.0,0.0
994,22.973020398763765,0.0,-0.0,9.808473587036133,-6.125029017312045e-07,1.2757115541717212e-07,2.726699976918212e-10,-23.800546646118164,61.24238586425781,0.0016386413481086493,-0.5967352390289307,-0.0,0.0
995,22.983020398540248,0.0,-0.0,9.782154083251953,-0.0,-0.0,-0.0,-23.800546646118164,61.24238586425781,0.0016386413481086493,-0.5967352390289307,-0.0,0.0
996,22.99302039831673,0.0,-0.0,9.8100004196167,-8.761210210650461e-07,3.46277204243961e-07,9.682896151552711e-11,-23.800546646118164,61.24238586425781,0.0016386413481086493,-0.5967352390289307,-0.0,0.0
997,23.003020398093213,0.0,-0.0,9.824878692626953,1.5714338275074624e-08,-1.6498578503387762e-08,-1.3991033331883784e-10,-23.800546646118164,61.24238586425781,0.0016401290195062757,-0.5967352390289307,-0.0,0.0
998,23.013020397869695,0.0,-0.0,9.805421829223633,3.6582594731271456e-08,-3.116897673294261e-08,2.7099267274621752e-11,-23.800546646118164,61.24238586425781,0.0016411590622738004,-0.5967352390289307,-0.0,0.0
999,23.023020397646178,0.0,-0.0,9.811145782470703,-8.433005405095173e-07,3.141743434298405e-07,1.0688933071989482e-10,-23.800546646118164,61.24238586425781,0.0016423034248873591,-0.5967352390289307,-0.0,0.0
1000,23.03302039742266,0.0,-0.0,9.81114387512207,-8.399411512982624e-07,3.0665231065540866e-07,-3.94657362345896e-11,-23.800546646118164,61.24238586425781,0.0016435622237622738,-0.5967352390289307,-0.0,0.0
1001,23.043020397199143,0.0,-0.0,9.81076431274414,6.364388127622078e-08,-5.899839905509907e-08,-1.1117889942013903e-10,-23.800546646118164,61.24238586425781,0.001644897391088307,-0.5967352390289307,-0.0,0.0
1002,23.053020396975626,0.0,-0.0,9.810380935668945,9.896394885799964e-07,-4.284893293515779e-07,-6.320284573479995e-11,-23.800546646118164,61.24238586425781,0.0016462707426398993,-0.5967352390289307,-0.0,0.0
1003,23.06302039675211,0.0,-0.0,9.810380935668945,-7.332370728363458e-07,2.672728385277878e-07,2.453589831308278e-10,-23.800546646118164,61.24238586425781,0.001647682162001729,-0.5967352390289307,-0.0,0.0
1004,23.07302039652859,0.0,-0.0,9.810001373291016,1.3671859733221936e-07,-8.601124790175163e-08,-1.6275270020571497e-10,-23.800546646118164,61.24238586425781,0.0016490935813635588,-0.5967352390289307,-0.0,0.0
1005,23.083020396305074,0.0,-0.0,9.8100004196167,1.689787154646183e-06,-9.524399757765423e-08,-8.496980896666173e-11,-23.800546646118164,61.24238586425781,0.0016505050007253885,-0.5967352390289307,-0.0,0.0
1006,23.093020396081556,0.0,-0.0,9.809999465942383,1.8126880263480416e-07,-1.0307684306098963e-07,1.8197418572007962e-10,-23.800546646118164,61.24238586425781,0.0016519164200872183,-0.5967352390289307,-0.0,0.0
1007,23.10302039585804,0.0,-0.0,9.809619903564453,-7.016087693045847e-07,2.413204640561162e-07,4.624318983292852e-11,-23.800546646118164,61.24238586425781,0.0016532897716388106,-0.5967352390289307,-0.0,0.0
1008,23.11302039563452,0.0,-0.0,9.8100004196167,1.8214610975064716e-07,-1.167296304060983e-07,-1.5405482445274288e-10,-23.800546646118164,61.24238586425781,0.0016546630067750812,-0.5967352390289307,-0.0,0.0
1009,23.123020395411004,0.0,-0.0,9.809619903564453,2.0605328643341636e-07,-1.3187798231228953e-07,2.3516633085307603e-11,-23.800546646118164,61.24238586425781,0.0016559981741011143,-0.5967352390289307,-0.0,0.0
1010,23.133020395187486,0.0,-0.0,9.809236526489258,2.1485666934495384e-07,-1.3849212621153129e-07,8.13799375110058e-12,-23.800546646118164,61.24238586425781,0.0016572570893913507,-0.5967352390289307,-0.0,0.0
1011,23.14302039496397,0.0,-0.0,9.8100004196167,2.209473279890517e-07,-1.479255047343031e-07,8.884568428180195e-13,-23.800546646118164,61.24238586425781,0.0016585158882662654,-0.5967352390289307,-0.0,0.0
1012,23.15302039474045,0.0,-0.0,9.80923843383789,-6.573378072971536e-07,1.9694307695772295e-07,9.751473933894417e-11,-23.800546646118164,61.24238586425781,0.0016596984351053834,-0.5967352390289307,-0.0,0.0
1013,23.163020394516934,0.0,-0.0,9.80961799621582,-6.676650059489475e-07,1.955746569137773e-07,-3.9643927030041937e-11,-23.800546646118164,61.24238586425781,0.001660842914134264,-0.5967352390289307,-0.0,0.0
1014,23.173020394293417,0.0,-0.0,9.809619903564453,1.9692789976488712e-07,-1.5585762014325155e-07,-1.0791821603017837e-10,-23.800546646118164,61.24238586425781,0.0016619490925222635,-0.5967352390289307,-0.0,0.0
1015,23.1830203940699,0.0,-0.0,9.80961799621582,2.088139723355198e-07,-1.6391282997574308e-07,3.5826230870839026e-11,-23.800546646118164,61.24238586425781,0.0016630172031000257,-0.5967352390289307,-0.0,0.0
1016,23.193020393846382,0.0,-0.0,9.79931926727295,-6.743161975464318e-07,1.8049674110898195e-07,1.0794631161159529e-10,-23.800546646118164,61.24238586425781,0.0016630172031000257,-0.5967352390289307,-0.0,0.0
1017,23.203020393622865,0.0,-0.0,9.82945442199707,1.9353655034137773e-07,-1.699792306908421e-07,-1.3520007335898754e-10,-23.800546646118164,61.24238586425781,0.0016649627359583974,-0.5967352390289307,-0.0,0.0
1018,23.213020393399347,0.0,-0.0,9.790546417236328,1.7388058495271252e-06,-1.72129091424722e-07,-7.553975500673715e-11,-23.800546646118164,61.24238586425781,0.0016649627359583974,-0.5967352390289307,-0.0,0.0
1019,23.22302039317583,0.0,-0.0,9.82792854309082,-6.8566708932849e-07,1.8336170626298554e-07,2.845904623072215e-10,-23.800546646118164,61.24238586425781,0.001666755648329854,-0.5967352390289307,-0.0,0.0
1020,23.233020392952312,0.0,-0.0,9.792072296142578,1.8787103783779457e-07,-1.7278921404795256e-07,-1.9044962829006806e-10,-23.800546646118164,61.24238586425781,0.001666755648329854,-0.5967352390289307,-0.0,0.0
1021,23.243020392728795,0.0,-0.0,9.825641632080078,1.7552797260123043e-07,-1.6948897041402233e-07,1.5107831652372283e-11,-23.800546646118164,61.24238586425781,0.0016683196881785989,-0.5967352390289307,-0.0,0.0
1022,23.253020392505277,0.0,-0.0,9.79435920715332,8.323135034515872e-07,1.7986968714467366e-07,-1.3817575555963302e-12,-23.800546646118164,61.24238586425781,0.0016683196881785989,-0.5967352390289307,-0.0,0.0
1023,23.26302039228176,0.0,-0.0,9.824115753173828,-6.932156679795298e-07,1.744521824775802e-07,1.3614895322255904e-10,-23.800546646118164,61.24238586425781,0.0016697311075404286,-0.5967352390289307,-0.0,0.0
1024,23.273020392058243,0.0,-0.0,9.79588508605957,1.5425257515744306e-07,-1.6988796858186106e-07,-1.58623059132168e-10,-23.800546646118164,61.24238586425781,0.0016697311075404286,-0.5967352390289307,-0.0,0.0
1025,23.283020391834725,0.0,-0.0,9.822587966918945,1.5267255548678804e-07,-1.7273360697345197e-07,2.1297685837140534e-11,-23.800546646118164,61.24238586425781,0.0016709899064153433,-0.5967352390289307,-0.0,0.0
1026,23.293020391611208,0.0,-0.0,9.797412872314453,1.4967362460538425e-07,-1.7649428230015474e-07,6.8768072833402805e-12,-23.800546646118164,61.24238586425781,0.0016709899064153433,-0.5967352390289307,-0.0,0.0
1027,23.30302039138769,0.0,-0.0,9.821062088012695,-7.421892291858967e-07,1.7547030495279614e-07,9.975672371487221e-11,-23.800546646118164,61.24238586425781,0.0016720962012186646,-0.5967352390289307,-0.0,0.0
1028,23.313020391164173,0.0,-0.0,9.798938751220703,-7.630314939888194e-07,1.7930702256307995e-07,-3.893102507035451e-11,-23.800546646118164,61.24238586425781,0.0016720962012186646,-0.5967352390289307,-0.0,0.0
1029,23.323020390940655,0.0,-0.0,9.8100004196167,1.2843636909565248e-07,-1.6841882199969405e-07,-1.0997645849553095e-10,-23.800546646118164,61.24238586425781,0.0016720962012186646,-0.5967352390289307,-0.0,0.0
1030,23.333020390717138,0.0,-0.0,9.82449722290039,1.3786876706944895e-07,-1.6281012449326226e-07,3.8603453766938856e-11,-23.800546646118164,61.24238586425781,0.0016735458048060536,-0.5967352390289307,-0.0,0.0
1031,23.34302039049362,0.0,-0.0,9.795503616333008,1.172656993730925e-07,-1.5805207453922776e-07,1.2993633946578598e-11,-23.800546646118164,61.24238586425781,0.0016735458048060536,-0.5967352390289307,-0.0,0.0
1032,23.353020390270103,0.0,-0.0,9.8100004196167,-7.905206871328119e-07,1.9771728432260716e-07,1.0117471443971127e-10,-23.800546646118164,61.24238586425781,0.0016735458048060536,-0.5967352390289307,-0.0,0.0
1033,23.363020390046586,0.0,-0.0,9.82182502746582,7.683223088861268e-07,2.0594093541603797e-07,-1.462144016972644e-10,-23.800546646118164,61.24238586425781,0.0016747283516451716,-0.5967352390289307,-0.0,0.0
1034,23.37302038982307,0.0,-0.0,9.798175811767578,1.0334085942531601e-07,-1.3867492043573293e-07,7.038711280493715e-11,-23.800546646118164,61.24238586425781,0.0016747283516451716,-0.5967352390289307,-0.0,0.0
1035,23.38302038959955,0.0,-0.0,9.8100004196167,-8.074946435954189e-07,2.1801056959702692e-07,8.474199120200865e-11,-23.800546646118164,61.24238586425781,0.0016747283516451716,-0.5967352390289307,-0.0,0.0
1036,23.393020389376034,0.0,-0.0,9.8100004196167,7.142689923966827e-07,2.1784045145523123e-07,-1.4989529062425788e-10,-23.800546646118164,61.24238586425781,0.0016747283516451716,-0.5967352390289307,-0.0,0.0
1037,23.403020389152516,0.0,-0.0,9.8100004196167,-0.0,-0.0,-0.0,-23.800546646118164,61.24238586425781,0.0016747283516451716,-0.5967352390289307,-0.0,0.0
1038,23.413020388929,0.0,-0.0,9.82029914855957,6.9998984386643315e-09,-1.037710006812631e-08,-1.5984599711568737e-12,-23.800546646118164,61.24238586425781,0.0016757582779973745,-0.5967352390289307,-0.0,0.0
1039,23.42302038870548,0.0,-0.0,9.799701690673828,-1.5520268403790283e-09,-1.0829259267097768e-08,8.227748994268924e-13,-23.800546646118164,61.24238586425781,0.0016757582779973745,-0.5967352390289307,-0.0,0.0
1040,23.433020388481964,0.0,-0.0,9.8100004196167,5.5484647987213975e-09,-1.838097318795917e-08,-1.6210888967999049e-12,-23.800546646118164,61.24238586425781,0.0016757582779973745,-0.5967352390289307,-0.0,0.0
1041,23.443020388258446,0.0,-0.0,9.8100004196167,8.866894063430664e-07,-3.722055907928734e-07,-9.776827958329903e-11,-23.800546646118164,61.24238586425781,0.0016757582779973745,-0.5967352390289307,-0.0,0.0
1042,23.45302038803493,0.0,-0.0,9.8100004196167,1.1064739346977603e-08,-2.9247766875073467e-08,1.3695258815893396e-10,-23.800546646118164,61.24238586425781,0.0016757582779973745,-0.5967352390289307,-0.0,0.0
1043,23.46302038781141,0.0,-0.0,9.8100004196167,-8.85248368831526e-07,3.218066808585718e-07,6.937967561571057e-11,-23.800546646118164,61.24238586425781,0.0016757582779973745,-0.5967352390289307,-0.0,0.0
1044,23.473020387587894,0.0,-0.0,9.8100004196167,-6.4912955011209306e-09,-3.4346086863479286e-08,-1.4801596059932365e-10,-23.800546646118164,61.24238586425781,0.0016757582779973745,-0.5967352390289307,-0.0,0.0
1045,23.483020387364377,0.0,-0.0,9.8100004196167,-8.963200457401399e-07,3.1570746727993537e-07,1.2573000973681303e-10,-23.800546646118164,61.24238586425781,0.0016757582779973745,-0.5967352390289307,-0.0,0.0
1046,23.49302038714086,0.0,-0.0,9.8100004196167,-1.876118638222124e-08,-4.044150259119306e-08,-1.3038395363373922e-10,-23.800546646118164,61.24238586425781,0.0016757582779973745,-0.5967352390289307,-0.0,0.0
1047,23.503020386917342,0.0,-0.0,9.820301055908203,8.871154477674281e-07,-3.943445676668489e-07,-6.873281804820053e-11,-23.800546646118164,61.24238586425781,0.0016767883207648993,-0.5967352390289307,-0.0,0.0
1048,23.513020386693825,0.0,-0.0,9.799699783325195,2.3100371393525165e-08,-4.4348198002808203e-08,1.4707531026392218e-10,-23.800546646118164,61.24238586425781,0.0016767883207648993,-0.5967352390289307,-0.0,0.0
1049,23.523020386470307,0.0,-0.0,9.8100004196167,2.007090671440892e-08,-4.1493198210673654e-08,-2.620917372020415e-11,-23.800546646118164,61.24238586425781,0.0016767883207648993,-0.5967352390289307,-0.0,0.0
1050,23.53302038624679,0.0,-0.0,9.8100004196167,1.417573702866548e-08,-4.336375880598098e-08,-8.20596542105978e-12,-23.800546646118164,61.24238586425781,0.0016767883207648993,-0.5967352390289307,-0.0,0.0
1051,23.543020386023272,0.0,-0.0,9.8100004196167,-8.69079315179988e-07,3.123485896594502e-07,9.640070686156577e-11,-23.800546646118164,61.24238586425781,0.0016767883207648993,-0.5967352390289307,-0.0,0.0
1052,23.553020385799755,0.0,-0.0,9.8100004196167,8.08778111149877e-09,-4.2857589477307556e-08,-1.3875756099679393e-10,-23.800546646118164,61.24238586425781,0.0016767883207648993,-0.5967352390289307,-0.0,0.0
1053,23.563020385576237,0.0,-0.0,9.8100004196167,1.5747858697068295e-06,-4.5056875563886933e-08,-7.698112980403238e-11,-23.800546646118164,61.24238586425781,0.0016767883207648993,-0.5967352390289307,-0.0,0.0
1054,23.57302038535272,0.0,-0.0,9.8100004196167,-8.337614190168097e-07,3.056880188978539e-07,2.8405505725359603e-10,-23.800546646118164,61.24238586425781,0.0016767883207648993,-0.5967352390289307,-0.0,0.0
1055,23.583020385129203,0.0,-0.0,9.8100004196167,-8.508183100275346e-07,3.0479543511319207e-07,-9.066167261373437e-11,-23.800546646118164,61.24238586425781,0.0016767883207648993,-0.5967352390289307,-0.0,0.0
1056,23.593020384905685,0.0,-0.0,9.82068157196045,9.1528727352852e-07,-4.0427744352200534e-07,-2.2311277825259879e-10,-23.800546646118164,61.24238586425781,0.0016778564313426614,-0.5967352390289307,-0.0,0.0
1057,23.603020384682168,0.0,-0.0,9.79931926727295,4.442992107556165e-08,-6.088175297236376e-08,1.7206326641261427e-10,-23.800546646118164,61.24238586425781,0.0016778564313426614,-0.5967352390289307,-0.0,0.0
1058,23.61302038445865,0.0,-0.0,9.8100004196167,4.7667402469642184e-08,-6.98152220479642e-08,-2.025284107087799e-11,-23.800546646118164,61.24238586425781,0.0016778564313426614,-0.5967352390289307,-0.0,0.0
1059,23.623020384235133,0.0,-0.0,9.8100004196167,4.3974051067152686e-08,-7.216258524067598e-08,-6.669309202123053e-12,-23.800546646118164,61.24238586425781,0.0016778564313426614,-0.5967352390289307,-0.0,0.0
1060,23.633020384011616,0.0,-0.0,9.8100004196167,-8.36651395275112e-07,2.708278543650522e-07,9.527018063337778e-11,-23.800546646118164,61.24238586425781,0.0016778564313426614,-0.5967352390289307,-0.0,0.0
1061,23.643020383788098,0.0,-0.0,9.8100004196167,1.574414454807993e-06,-7.706193372314374e-08,-2.4162064016231e-10,-23.800546646118164,61.24238586425781,0.0016778564313426614,-0.5967352390289307,-0.0,0.0
1062,23.65302038356458,0.0,-0.0,9.8100004196167,-8.199343710657558e-07,2.679765316315752e-07,3.0153732288873414e-10,-23.800546646118164,61.24238586425781,0.0016778564313426614,-0.5967352390289307,-0.0,0.0
1063,23.663020383341063,0.0,-0.0,9.8100004196167,9.215530099027092e-07,-4.372589046397479e-07,-2.7868898855309965e-10,-23.800546646118164,61.24238586425781,0.0016778564313426614,-0.5967352390289307,-0.0,0.0
1064,23.673020383117546,0.0,-0.0,9.8100004196167,-8.222824590120581e-07,2.5334657038911246e-07,2.483959704591143e-10,-23.800546646118164,61.24238586425781,0.0016778564313426614,-0.5967352390289307,-0.0,0.0
1065,23.68302038289403,0.0,-0.0,9.8100004196167,9.238362395080912e-07,-4.4857023340227897e-07,-2.575301361051885e-10,-23.800546646118164,61.24238586425781,0.0016778564313426614,-0.5967352390289307,-0.0,0.0
1066,23.69302038267051,0.0,-0.0,9.8100004196167,-8.239322824010742e-07,2.420462692498404e-07,2.55025917050844e-10,-23.800546646118164,61.24238586425781,0.0016778564313426614,-0.5967352390289307,-0.0,0.0
1067,23.703020382446994,0.0,-0.0,9.8100004196167,3.7781429540473255e-08,-1.0839370645499002e-07,-1.5852158474771727e-10,-23.800546646118164,61.24238586425781,0.0016778564313426614,-0.5967352390289307,-0.0,0.0
1068,23.713020382223476,0.0,-0.0,9.8100004196167,3.299145134860737e-08,-1.1123103149657254e-07,2.1448065545826012e-11,-23.800546646118164,61.24238586425781,0.0016778564313426614,-0.5967352390289307,-0.0,0.0
1069,23.72302038199996,0.0,-0.0,9.8100004196167,-8.492857546116284e-07,2.3270557392152114e-07,1.0391262850184546e-10,-23.800546646118164,61.24238586425781,0.0016778564313426614,-0.5967352390289307,-0.0,0.0
1070,23.73302038177644,0.0,-0.0,9.8100004196167,9.96052129664804e-09,-1.1822174883491243e-07,-1.3536741172437416e-10,-23.800546646118164,61.24238586425781,0.0016778564313426614,-0.5967352390289307,-0.0,0.0
1071,23.743020381552924,0.0,-0.0,9.820301055908203,1.5507972648265422e-06,-1.2271637217509124e-07,-7.601996115935705e-11,-23.800546646118164,61.24238586425781,0.0016788863576948643,-0.5967352390289307,-0.0,0.0
1072,23.753020381329407,0.0,-0.0,9.799699783325195,2.529261955430684e-08,-1.276841601338674e-07,1.8433563009345733e-10,-23.800546646118164,61.24238586425781,0.0016788863576948643,-0.5967352390289307,-0.0,0.0
1073,23.76302038110589,0.0,-0.0,9.8100004196167,-8.599335501457972e-07,2.1389287496731413e-07,4.539418840820986e-11,-23.800546646118164,61.24238586425781,0.0016788863576948643,-0.5967352390289307,-0.0,0.0
1074,23.77302038088237,0.0,-0.0,9.8100004196167,3.915390234254801e-09,-1.3469278314914845e-07,-1.5201745418025325e-10,-23.800546646118164,61.24238586425781,0.0016788863576948643,-0.5967352390289307,-0.0,0.0
1075,23.783020380658854,0.0,-0.0,9.8100004196167,6.434071906369354e-07,2.1892140011914307e-07,2.084478423203251e-11,-23.800546646118164,61.24238586425781,0.0016788863576948643,-0.5967352390289307,-0.0,0.0
1076,23.793020380435337,0.0,-0.0,9.8100004196167,-1.2122097103883789e-08,-1.3322971881279955e-07,4.5957807004448625e-11,-23.800546646118164,61.24238586425781,0.0016788863576948643,-0.5967352390289307,-0.0,0.0
1077,23.80302038021182,0.0,-0.0,9.8100004196167,-8.939811664276931e-07,2.106725531803022e-07,7.41597686038098e-11,-23.800546646118164,61.24238586425781,0.0016788863576948643,-0.5967352390289307,-0.0,0.0
1078,23.813020379988302,0.0,-0.0,9.8100004196167,-3.289451200316762e-08,-1.3837701828833815e-07,-1.430717488926092e-10,-23.800546646118164,61.24238586425781,0.0016788863576948643,-0.5967352390289307,-0.0,0.0
1079,23.823020379764785,0.0,-0.0,9.8100004196167,-0.0,-0.0,-0.0,-23.800546646118164,61.24238586425781,0.0016788863576948643,-0.5967352390289307,-0.0,0.0
1080,23.833020379541267,0.0,-0.0,9.8100004196167,2.251395070373974e-09,2.3496156131841417e-09,1.022686980673565e-13,-23.800546646118164,61.24238586425781,0.0016788863576948643,-0.5967352390289307,-0.0,0.0
1081,23.84302037931775,0.0,-0.0,9.8100004196167,4.512624052210867e-09,4.69941774383642e-09,2.1714577293392712e-13,-23.800546646118164,61.24238586425781,0.0016788863576948643,-0.5967352390289307,-0.0,0.0
1082,23.853020379094232,0.0,-0.0,9.8100004196167,6.775315863905007e-09,7.049213657239761e-09,2.4587856707267153e-13,-23.800546646118164,61.24238586425781,0.0016788863576948643,-0.5967352390289307,-0.0,0.0
1083,23.863020378870715,0.0,-0.0,9.8100004196167,9.038156001395237e-09,9.39901756424888e-09,2.5129776189646014e-13,-23.800546646118164,61.24238586425781,0.0016788863576948643,-0.5967352390289307,-0.0,0.0
1084,23.873020378647198,0.0,-0.0,9.8100004196167,1.1301047209144599e-08,1.1748818806722738e-08,2.522007938859233e-13,-23.800546646118164,61.24238586425781,0.0016788863576948643,-0.5967352390289307,-0.0,0.0
1085,23.88302037842368,0.0,-0.0,9.8100004196167,1.356391354789821e-08,1.4098620937375017e-08,2.523134967017532e-13,-23.800546646118164,61.24238586425781,0.0016788863576948643,-0.5967352390289307,-0.0,0.0
1086,23.893020378200163,0.0,-0.0,9.8100004196167,1.5826776333938142e-08,1.6448423068027296e-08,2.523339068076502e-13,-23.800546646118164,61.24238586425781,0.0016788863576948643,-0.5967352390289307,-0.0,0.0
1087,23.903020377976645,0.0,-0.0,9.8100004196167,-6.203232487678179e-07,-3.329569153720513e-07,5.337264050858659e-12,-23.800546646118164,61.24238586425781,0.0016788863576948643,-0.5967352390289307,-0.0,0.0
1088,23.913020377753128,0.0,-0.0,9.8100004196167,5.485402709837217e-08,1.7737173507725856e-08,-3.9117653560794e-11,-23.800546646118164,61.24238586425781,0.0016788863576948643,-0.5967352390289307,-0.0,0.0
1089,23.92302037752961,0.0,-0.0,9.8100004196167,8.537475792991245e-08,2.0526520927433012e-08,2.3602998028282585e-11,-23.800546646118164,61.24238586425781,0.0016788863576948643,-0.5967352390289307,-0.0,0.0
1090,23.933020377306093,0.0,-0.0,9.8100004196167,1.1382228137790662e-07,2.328935622131212e-08,6.796443616230441e-12,-23.800546646118164,61.24238586425781,0.0016788863576948643,-0.5967352390289307,-0.0,0.0
1091,23.943020377082576,0.0,-0.0,9.8100004196167,1.2939757709773403e-07,3.173161644554057e-08,2.9294210286689992e-12,-23.800546646118164,61.24238586425781,0.0016788863576948643,-0.5967352390289307,-0.0,0.0
1092,23.953020376859058,0.0,-0.0,9.8100004196167,1.4487464738976996e-07,4.0174320758978865e-08,1.2842486405914566e-12,-23.800546646118164,61.24238586425781,0.0016788863576948643,-0.5967352390289307,-0.0,0.0
1093,23.96302037663554,0.0,-0.0,9.8100004196167,-1.376667569275014e-06,4.319054625057106e-08,1.0438413328150986e-10,-23.800546646118164,61.24238586425781,0.0016788863576948643,-0.5967352390289307,-0.0,0.0
1094,23.973020376412023,0.0,-0.0,9.8100004196167,-1.3575923958342173e-06,4.407521814187021e-08,-7.306472094015248e-11,-23.800546646118164,61.24238586425781,0.0016788863576948643,-0.5967352390289307,-0.0,0.0
1095,23.983020376188506,0.0,-0.0,9.8100004196167,-4.448912420684792e-07,3.980252643032145e-07,-4.1345850354534974e-11,-23.800546646118164,61.24238586425781,0.0016788863576948643,-0.5967352390289307,-0.0,0.0
1096,23.99302037596499,0.0,-0.0,9.8100004196167,-4.153980910359678e-07,-3.042020750854135e-07,-3.6805912484449976e-11,-23.800546646118164,61.24238586425781,0.0016788863576948643,-0.5967352390289307,-0.0,0.0
1097,24.00302037574147,0.0,-0.0,9.8100004196167,-3.622255349000625e-07,-3.029670949672436e-07,6.161932075698928e-12,-23.800546646118164,61.24238586425781,0.0016788863576948643,-0.5967352390289307,-0.0,0.0
1098,24.013020375517954,0.0,-0.0,9.8100004196167,1.2037301075906726e-06,-3.032590996099316e-07,-1.0120915910905026e-10,-23.800546646118164,61.24238586425781,0.0016788863576948643,-0.5967352390289307,-0.0,0.0
1099,24.023020375294436,0.0,-0.0,9.8100004196167,1.2417078778526047e-06,-3.0238990689213097e-07,7.281521219315579e-11,-23.800546646118164,61.24238586425781,0.0016788863576948643,-0.5967352390289307,-0.0,0.0
1100,24.03302037507092,0.0,-0.0,9.8100004196167,3.863140705107071e-07,5.090732813073373e-08,1.1761960849732134e-10,-23.800546646118164,61.24238586425781,0.0016788863576948643,-0.5967352390289307,-0.0,0.0
1101,24.0430203748474,0.0,-0.0,9.8100004196167,3.980861436048144e-07,5.8908820932401795e-08,-3.5016253785435936e-11,-23.800546646118164,61.24238586425781,0.0016788863576948643,-0.5967352390289307,-0.0,0.0
1102,24.053020374623884,0.0,-0.0,9.8100004196167,4.1406539708077617e-07,6.6878634186196e-08,-9.496301314748656e-12,-23.800546646118164,61.24238586425781,0.0016788863576948643,-0.5967352390289307,-0.0,0.0
1103,24.063020374400367,0.0,-0.0,9.8100004196167,4.3050206954831083e-07,7.484789676936998e-08,-1.1975108404893575e-12,-23.800546646118164,61.24238586425781,0.0016788863576948643,-0.5967352390289307,-0.0,0.0
1104,24.07302037417685,0.0,-0.0,9.8100004196167,4.4700468038172403e-07,8.281719487968076e-08,4.631737701710215e-13,-23.800546646118164,61.24238586425781,0.0016788863576948643,-0.5967352390289307,-0.0,0.0
1105,24.08302037395333,0.0,-0.0,9.8100004196167,4.635167272226681e-07,9.078649298999153e-08,7.515633081156547e-13,-23.800546646118164,61.24238586425781,0.0016788863576948643,-0.5967352390289307,-0.0,0.0
1106,24.093020373729814,0.0,-0.0,9.8100004196167,-1.8199081353031943e-07,-2.543581558711594e-07,7.337846476274112e-12,-23.800546646118164,61.24238586425781,0.0016788863576948643,-0.5967352390289307,-0.0,0.0
1107,24.103020373506297,0.0,-0.0,9.8100004196167,4.804712148143153e-07,9.966206704348224e-08,-3.8116339945437616e-11,-23.800546646118164,61.24238586425781,0.0016788863576948643,-0.5967352390289307,-0.0,0.0
1108,24.11302037328278,0.0,-0.0,9.8100004196167,-1.7092943949137407e-07,-2.4025570155572495e-07,3.194478362389397e-11,-23.800546646118164,61.24238586425781,0.0016788863576948643,-0.5967352390289307,-0.0,0.0
1109,24.123020373059262,0.0,-0.0,9.8100004196167,4.835305844608229e-07,1.1896545970557781e-07,-3.0730477190710204e-11,-23.800546646118164,61.24238586425781,0.0016788863576948643,-0.5967352390289307,-0.0,0.0
1110,24.133020372835745,0.0,-0.0,9.8100004196167,-1.678612733257978e-07,-2.2095183282999642e-07,3.276916932248852e-11,-23.800546646118164,61.24238586425781,0.0016788863576948643,-0.5967352390289307,-0.0,0.0
1111,24.143020372612227,0.0,-0.0,9.8100004196167,-1.0554432492426713e-06,1.3944786303454748e-07,7.388122058582525e-11,-23.800546646118164,61.24238586425781,0.0016788863576948643,-0.5967352390289307,-0.0,0.0
1112,24.15302037238871,0.0,-0.0,9.8100004196167,-1.0526800906518474e-06,1.5170675737863348e-07,-4.6416967491857974e-11,-23.800546646118164,61.24238586425781,0.0016788863576948643,-0.5967352390289307,-0.0,0.0
1113,24.163020372165192,0.0,-0.0,9.8100004196167,-1.034758042806061e-06,1.5825924037926598e-07,-1.2571957364038155e-11,-23.800546646118164,61.24238586425781,0.0016788863576948643,-0.5967352390289307,-0.0,0.0
1114,24.173020371941675,0.0,-0.0,9.8100004196167,-1.0058248562927474e-06,1.591353679941676e-07,-3.219939939680394e-12,-23.800546646118164,61.24238586425781,0.0016788863576948643,-0.5967352390289307,-0.0,0.0
1115,24.183020371718158,0.0,-0.0,9.8100004196167,-8.89849616214633e-08,5.121367507854302e-07,-2.255866674016893e-11,-23.800546646118164,61.24238586425781,0.0016788863576948643,-0.5967352390289307,-0.0,0.0
1116,24.19302037149464,0.0,-0.0,9.8100004196167,-9.285477631237882e-07,1.6653181944548123e-07,6.449684536447009e-11,-23.800546646118164,61.24238586425781,0.0016788863576948643,-0.5967352390289307,-0.0,0.0
1117,24.203020371271123,0.0,-0.0,9.8100004196167,-2.3262977322247025e-07,-1.906695814568593e-07,-1.1539690036865835e-10,-23.800546646118164,61.24238586425781,0.0016788863576948643,-0.5967352390289307,-0.0,0.0
1118,24.213020371047605,0.0,-0.0,9.8100004196167,4.179582191454756e-08,-1.9085287306097598e-07,4.720855650841571e-12,-23.800546646118164,61.24238586425781,0.0016788863576948643,-0.5967352390289307,-0.0,0.0
1119,24.223020370824088,0.0,-0.0,9.8100004196167,9.265187372875516e-08,-1.895538872531688e-07,1.668216953465418e-11,-23.800546646118164,61.24238586425781,0.0016788863576948643,-0.5967352390289307,-0.0,0.0
1120,24.23302037060057,0.0,-0.0,9.8100004196167,1.3087979766623903e-07,-1.8257593126236316e-07,5.339778966217956e-12,-23.800546646118164,61.24238586425781,0.0016788863576948643,-0.5967352390289307,-0.0,0.0
1121,24.243020370377053,0.0,-0.0,9.8100004196167,-0.0,-0.0,-0.0,-23.800546646118164,61.24238586425781,0.0016788863576948643,-0.5967352390289307,-0.0,0.0
1122,24.253020370153536,0.0,-0.0,9.8100004196167,3.778604096282834e-08,6.977789013262736e-09,-1.801296091452631e-12,-23.800546646118164,61.24238586425781,0.0016788863576948643,-0.5967352390289307,-0.0,0.0
1123,24.263020369930018,0.0,-0.0,9.8100004196167,7.573747495825955e-08,1.3956124256253588e-08,4.715954189660199e-15,-23.800546646118164,61.24238586425781,0.0016788863576948643,-0.5967352390289307,-0.0,0.0
1124,24.2730203697065,0.0,-0.0,9.8100004196167,1.1371278674232599e-07,2.093449147366755e-08,4.810891268691719e-13,-23.800546646118164,61.24238586425781,0.0016788863576948643,-0.5967352390289307,-0.0,0.0
1125,24.283020369482983,0.0,-0.0,9.8100004196167,1.4018854699315852e-07,3.359069467023801e-08,1.9659163619928366e-12,-23.800546646118164,61.24238586425781,0.0016788863576948643,-0.5967352390289307,-0.0,0.0
1126,24.293020369259466,0.0,-0.0,9.8100004196167,1.66614412933086e-07,4.6247379259511945e-08,1.4606376004533406e-12,-23.800546646118164,61.24238586425781,0.0016788863576948643,-0.5967352390289307,-0.0,0.0
1127,24.30302036903595,0.0,-0.0,9.8100004196167,1.9303315923480113e-07,5.890404608521749e-08,1.3190366767584782e-12,-23.800546646118164,61.24238586425781,0.0016788863576948643,-0.5967352390289307,-0.0,0.0
1128,24.31302036881243,0.0,-0.0,9.8100004196167,2.0527255628621788e-07,6.594174095653216e-08,1.6419063374531473e-12,-23.800546646118164,61.24238586425781,0.0016788863576948643,-0.5967352390289307,-0.0,0.0
1129,24.323020368588914,0.0,-0.0,9.8100004196167,2.05411666343025e-07,6.73550601959505e-08,1.1539536687310559e-12,-23.800546646118164,61.24238586425781,0.0016788863576948643,-0.5967352390289307,-0.0,0.0
1130,24.333020368365396,0.0,-0.0,9.8100004196167,2.0548910129036813e-07,6.876787495002645e-08,3.8541744665568367e-13,-23.800546646118164,61.24238586425781,0.0016788863576948643,-0.5967352390289307,-0.0,0.0
1131,24.34302036814188,0.23997129499912262,0.0025019091553986073,9.82068157196045,1.0786919119709637e-05,-0.0001480722421547398,0.00039977056439965963,-23.800521850585938,61.24238586425781,0.0016799544682726264,-0.5965093374252319,9.56226431299001e-05,1.9261709894635715e-05
1132,24.35302036791836,27.222932815551758,-0.07664147019386292,9.56054401397705,-2.387621861998923e-06,0.007055838592350483,0.0001751046656863764,-23.797775268554688,61.24235153198242,0.0016562652308493853,-0.5964089632034302,-0.003961509559303522,1.789028465282172e-05
1133,24.363020367694844,26.002029418945312,0.11062540113925934,9.657983779907227,-2.898178763643955e-06,0.011426971293985844,8.830243314150721e-05,-23.792428970336914,61.2422981262207,0.0016178512014448643,-0.5963584780693054,-0.010511660948395729,1.62233136506984e-05
1134,24.373020367471327,24.405176162719727,-0.06603189557790756,9.705525398254395,-2.519333065720275e-06,0.014300382696092129,5.162685556570068e-05,-23.784643173217773,61.24221420288086,0.001569785992614925,-0.5963289141654968,-0.018694227561354637,1.4772261238249484e-05
1135,24.38302036724781,21.34522247314453,0.06210435554385185,9.756974220275879,-1.6033766314649256e-06,0.015620023012161255,3.36762132064905e-05,-23.774723052978516,61.24211120605469,0.001517448341473937,-0.596309244632721,-0.027655433863401413,1.3845799912814982e-05
1136,24.39302036702429,19.62773323059082,-0.035796210169792175,9.778290748596191,-1.0314281553291949e-06,0.016126470640301704,2.1149386157048866e-05,-23.762842178344727,61.24198913574219,0.0014632033417001367,-0.5962971448898315,-0.036889851093292236,1.3247953575046267e-05
1137,24.403020366800774,11.628379821777344,0.000937944685574621,9.864567756652832,-8.569676310798968e-07,0.014244940131902695,1.6937037798925303e-05,-23.74979591369629,61.24185562133789,0.0014153289375826716,-0.5962874293327332,-0.045051924884319305,1.274999067391036e-05
1138,24.413020366577257,19.410181045532227,0.0019080480560660362,9.767805099487305,-8.738088581594639e-07,0.014964899979531765,2.9116306450305274e-06,-23.734813690185547,61.24169921875,0.0013650512555614114,-0.596285879611969,-0.05362381041049957,1.2247935046616476e-05
1139,24.42302036635374,15.351839065551758,-0.04034440964460373,9.823225975036621,1.32815841880074e-06,0.014105759561061859,1.8434709545545047e-06,-23.71829605102539,61.24152374267578,0.0013177490327507257,-0.5962846875190735,-0.06171075627207756,1.300775784329744e-05
1140,24.433020366130222,12.852413177490234,0.01363344956189394,9.840306282043457,3.6915071177645586e-07,0.012724298052489758,3.921709776477655e-06,-23.70049285888672,61.241336822509766,0.001275024376809597,-0.5962825417518616,-0.06899856775999069,1.3216746992839035e-05
1141,24.443020365906705,12.773544311523438,0.012800506316125393,9.833206176757812,-1.899611845601612e-07,0.011542461812496185,2.83584540738957e-06,-23.681415557861328,61.24113464355469,0.0012363052228465676,-0.5962808728218079,-0.0756101906299591,1.3105910511512775e-05
1142,24.453020365683187,7.013980388641357,0.032852351665496826,9.882136344909668,6.148804914118955e-07,0.00905659794807434,4.175785306870239e-06,-23.661638259887695,61.24093246459961,0.0012057876447215676,-0.5962785482406616,-0.08080113679170609,1.345486907666782e-05
1143,24.46302036545967,11.85569953918457,-0.0367712527513504,9.816718101501465,-3.4250840030836116e-07,0.008336011320352554,-7.369217655650573e-06,-23.640676498413086,61.2407112121582,0.0011777114123106003,-0.5962826609611511,-0.08557543903589249,1.3264797416923102e-05
1144,24.473020365236152,6.675429821014404,0.029317282140254974,9.864846229553223,4.7676149961262126e-07,0.00640582712367177,-4.123702456126921e-05,-23.619047164916992,61.24048614501953,0.0011561583960428834,-0.5963065028190613,-0.08925008028745651,1.3574151125794742e-05
1145,24.483020365012635,9.696585655212402,-0.01925022155046463,9.825270652770996,6.429334007407306e-07,0.005529628600925207,2.042350206465926e-05,-23.596452713012695,61.24025344848633,0.001137695275247097,-0.5962945222854614,-0.09241928160190582,1.3923916412750259e-05
1146,24.493020364789118,6.175958633422852,0.06410515308380127,9.847103118896484,6.699506229779217e-07,0.004064640961587429,8.373808668693528e-05,-23.573238372802734,61.240013122558594,0.0011239623418077826,-0.5962468981742859,-0.09474837779998779,1.4229336557036731e-05
1147,24.5030203645656,7.917809009552002,-0.07777511328458786,9.826807975769043,-1.6884816886886256e-06,0.0031718562822788954,-5.4641433962387964e-05,-23.549238204956055,61.23976516723633,0.0011132430518046021,-0.5962780117988586,-0.09655837714672089,1.3314072020875756e-05
1148,24.513020364342083,5.996468544006348,0.06224362552165985,9.834111213684082,1.4928820064596948e-06,0.002147920662537217,-0.00013928956468589604,-23.52463722229004,61.23950958251953,0.0011059569660574198,-0.5963580012321472,-0.09778781235218048,1.4304897376860026e-05
1149,24.523020364118565,6.717800617218018,-0.05025816708803177,9.82516098022461,1.8096216081175953e-06,0.0013734442181885242,3.530202229740098e-05,-23.499366760253906,61.2392463684082,0.0011013412149623036,-0.5963376760482788,-0.09858011454343796,1.5307083231164142e-05
1150,24.533020363895048,5.357098579406738,0.015578119084239006,9.82823371887207,1.5520050737904967e-06,0.0005459054955281317,9.03390027815476e-05,-23.47356414794922,61.23897933959961,0.0010994720505550504,-0.596285879611969,-0.09889430552721024,1.6107027477119118e-05
1151,24.54302036367153,6.15703821182251,0.023903686553239822,9.81769847869873,-1.427690790478664e-06,9.857642879751438e-08,-2.491538180038333e-05,-23.447145462036133,61.238704681396484,0.0010994338663294911,-0.596285879611969,-0.09889430552721024,1.6107027477119118e-05
1152,24.553020363448013,4.7174763679504395,-0.031076522544026375,9.824793815612793,-5.006929200135346e-07,-0.000676383322570473,-5.615824557025917e-05,-23.420257568359375,61.238426208496094,0.0011016845237463713,-0.5963324904441833,-0.09850498288869858,1.5082227037055418e-05
1153,24.563020363224496,5.6573028564453125,-0.02129278890788555,9.812934875488281,-9.723347602630383e-07,-0.0010557275963947177,-9.516918908047955e-06,-23.392805099487305,61.23814010620117,0.0011051940964534879,-0.5963377952575684,-0.09790392965078354,1.453433924325509e-05
1154,24.57302036300098,4.256402492523193,0.04413172975182533,9.82111930847168,-1.4199432030181924e-07,-0.0015782121336087584,2.780584509309847e-06,-23.36492919921875,61.237850189208984,0.0011105346493422985,-0.5963361859321594,-0.096995510160923,1.4450389244302642e-05
1155,24.58302036277746,5.217401027679443,-0.06586983799934387,9.808906555175781,-9.778890444067656e-07,-0.0018255568575114012,-9.68248878052691e-06,-23.336532592773438,61.237552642822266,0.0011166381882503629,-0.5963416695594788,-0.09595049172639847,1.389942644891562e-05
1156,24.593020362553943,3.895601511001587,0.08038341253995895,9.81730842590332,-8.318939421769755e-07,-0.002223392715677619,-1.2120251994929276e-05,-23.307748794555664,61.23725509643555,0.0011241149622946978,-0.5963488221168518,-0.09468007832765579,1.3434342690743506e-05
1157,24.603020362330426,4.876547336578369,-0.02940947748720646,9.806267738342285,1.4387851479114033e-06,-0.0023633609525859356,-1.191254432342248e-05,-23.278478622436523,61.2369499206543,0.0011320114135742188,-0.5963554382324219,-0.09332086890935898,1.4269928215071559e-05
1158,24.61302036210691,3.6159467697143555,-0.0025255284272134304,9.812992095947266,-1.7479935721098627e-08,-0.0026628472842276096,-1.1303267456241883e-05,-23.248849868774414,61.23664474487305,0.0011407851707190275,-0.5963621139526367,-0.09179090708494186,1.4270449355535675e-05
1159,24.62302036188339,4.515622138977051,0.006842500064522028,9.806336402893066,-3.0604385869992257e-07,-0.002716090064495802,-1.2905758921988308e-05,-23.218769073486328,61.236331939697266,0.0011499023530632257,-0.5963696241378784,-0.09023362398147583,1.4106823982729111e-05
1160,24.633020361659874,3.3954038619995117,-0.004814522340893745,9.812394142150879,-2.7405155833548633e-07,-0.002937422599643469,-1.309233448409941e-05,-23.188350677490234,61.23601531982422,0.0011597824050113559,-0.5963770151138306,-0.08856023102998734,1.3961590411781799e-05
1161,24.643020361436356,4.315469264984131,-0.03523588553071022,9.803085327148438,3.534219388257043e-07,-0.0029248264618217945,-1.3363948710320983e-05,-23.15750503540039,61.23569107055664,0.0011696242727339268,-0.5963845252990723,-0.08687999844551086,1.4175763681123499e-05
1162,24.65302036121284,3.154409170150757,0.0326860286295414,9.81066608428955,-1.158623831543082e-06,-0.0030852756462991238,-1.3688953913515434e-05,-23.1263427734375,61.2353630065918,0.0011800002539530396,-0.5963925123214722,-0.08512464165687561,1.352365597995231e-05
1163,24.66302036098932,4.094462871551514,0.0024730991572141647,9.801764488220215,1.6687494053257979e-06,-0.0030207117088139057,-1.1099738003395032e-05,-23.094772338867188,61.23503875732422,0.0011901473626494408,-0.5963987708091736,-0.08337611705064774,1.4489102795778308e-05
1164,24.673020360765804,3.0142252445220947,-0.008768164552748203,9.809531211853027,-1.2682069439051702e-07,-0.0031353961676359177,-1.3050625966570806e-05,-23.062902450561523,61.23470687866211,0.0012006759643554688,-0.5964062809944153,-0.08158660680055618,1.4427246242121328e-05
1165,24.683020360542287,3.9138669967651367,0.0006003811722621322,9.801121711730957,-9.932911098076147e-07,-0.00303249666467309,-1.254652306670323e-05,-23.030641555786133,61.23436737060547,0.0012108611408621073,-0.5964134335517883,-0.07984490692615509,1.3868258065485861e-05
1166,24.69302036031877,2.8936266899108887,-0.010016736574470997,9.808737754821777,-6.06981757300673e-07,-0.0031123009975999594,-1.0776616363727953e-05,-22.998092651367188,61.234031677246094,0.0012213134905323386,-0.596419632434845,-0.07806222885847092,1.3529072930396069e-05
1167,24.703020360095252,3.792860984802246,0.0393499955534935,9.801139831542969,6.834246164544311e-07,-0.002980426186695695,-1.2289466212678235e-05,-22.965167999267578,61.23368835449219,0.0012313842307776213,-0.5964266657829285,-0.0763615071773529,1.3930087334301788e-05
1168,24.713020359871734,2.773458957672119,-0.05126278102397919,9.80792236328125,1.7077413758670446e-06,-0.0030355865601450205,-1.2033779967168812e-05,-22.931964874267578,61.23334503173828,0.001241607591509819,-0.5964333415031433,-0.07461981475353241,1.4917679436621256e-05
1169,24.723020359648217,3.672698736190796,-0.0018958799773827195,9.798848152160645,-5.824412241395294e-08,-0.002883570734411478,-1.3015194781473838e-05,-22.89839744567871,61.23299026489258,0.0012511825188994408,-0.5964411497116089,-0.07296007871627808,1.4893891602696385e-05
1170,24.7330203594247,2.6920650005340576,0.027900798246264458,9.811234474182129,4.634770505163033e-07,-0.002920157043263316,-1.0312731319572777e-05,-22.86456298828125,61.23263931274414,0.001261215191334486,-0.5964470505714417,-0.07129351049661636,1.5166842786129564e-05
1171,24.743020359201182,3.5321483612060547,-0.003352409927174449,9.796554565429688,3.402500396987307e-07,-0.0027560112066566944,-1.0783892321342137e-05,-22.830373764038086,61.23228454589844,0.0012703322572633624,-0.5964533090591431,-0.06971573829650879,1.536939453217201e-05
1172,24.753020358977665,2.6515209674835205,0.02748497575521469,9.809527397155762,-6.016205134073971e-07,-0.002779928967356682,-1.1405605619074777e-05,-22.795923233032227,61.23192596435547,0.0012797164963558316,-0.5964599251747131,-0.06811746954917908,1.5032659575808793e-05
1173,24.763020358754147,3.4316294193267822,-0.004392559174448252,9.799910545349121,1.045765998242132e-06,-0.002607578644528985,-1.1807317605416756e-05,-22.761127471923828,61.2315673828125,0.0012884902535006404,-0.5964664816856384,-0.06662849336862564,1.563968908158131e-05
1174,24.77302035853063,2.6118416786193848,-0.05292634293437004,9.807802200317383,-1.6771508626334253e-07,-0.0026236074045300484,-1.3612009752250742e-05,-22.72607421875,61.231201171875,0.0012973403790965676,-0.5964743494987488,-0.06512585282325745,1.5552612239844166e-05
1175,24.783020358307112,3.3707191944122314,0.034981511533260345,9.800537109375,-3.066589897571248e-07,-0.0024461986031383276,-1.2571932529681362e-05,-22.690683364868164,61.23082733154297,0.0013056182069703937,-0.5964816808700562,-0.06371883302927017,1.5385026927106082e-05
1176,24.793020358083595,2.530947208404541,-0.013760844245553017,9.80725383758545,-4.2669566369113454e-07,-0.002458389615640044,-9.59486987994751e-06,-22.655040740966797,61.2304573059082,0.0013138961512595415,-0.5964869260787964,-0.0623118132352829,1.5146622899919748e-05
1177,24.803020357860078,3.3106746673583984,-0.0056403144262731075,9.800375938415527,3.5186320701541263e-07,-0.0022802387829869986,-9.911758752423339e-06,-22.619070053100586,61.23008346557617,0.0013215637300163507,-0.59649258852005,-0.06100724637508392,1.535428236820735e-05
1178,24.81302035763656,2.530083417892456,0.026237541809678078,9.807751655578613,8.099095794023015e-08,-0.002289442578330636,-1.0470408597029746e-05,-22.58284568786621,61.229705810546875,0.0013292693765833974,-0.5964986085891724,-0.05969585105776787,1.5407067621708848e-05
1179,24.823020357413043,3.250247001647949,-0.006264347583055496,9.80058479309082,-3.66000193707805e-07,-0.002111873123794794,-8.789329513092525e-06,-22.54629898071289,61.22932434082031,0.0013363647740334272,-0.596503734588623,-0.058486904948949814,1.520253499620594e-05
1180,24.833020357189525,2.4905033111572266,-0.054174087941646576,9.807897567749023,6.178836997605686e-07,-0.0021203693468123674,-8.499680006934796e-06,-22.50950050354004,61.228939056396484,0.0013434982392936945,-0.5965085029602051,-0.05727113410830498,1.5561496184091084e-05
1181,24.843020356966008,3.2090179920196533,0.07331553101539612,9.801136016845703,7.953753993206192e-07,-0.0019462575437501073,-7.357076356129255e-06,-22.47238540649414,61.228553771972656,0.0013500595232471824,-0.5965126752853394,-0.05615781247615814,1.602136944711674e-05
1182,24.85302035674249,2.4701218605041504,-0.054381925612688065,9.807632446289062,-8.197487204597564e-07,-0.001954267732799053,-7.938822818687186e-06,-22.43502426147461,61.2281608581543,0.0013566208072006702,-0.5965173840522766,-0.055037662386894226,1.5556050129816867e-05
1183,24.863020356518973,3.169069766998291,0.03290162980556488,9.801294326782227,1.1121447585082933e-07,-0.001783421728760004,-6.010672677803086e-06,-22.39734649658203,61.2277717590332,0.001362609793432057,-0.596520721912384,-0.05401313304901123,1.56231144501362e-05
1184,24.873020356295456,2.449354887008667,-0.01459199097007513,9.808121681213379,-1.3131057130522095e-07,-0.0017958146054297686,-7.567429747723509e-06,-22.35942268371582,61.22737503051758,0.0013686370803043246,-0.5965250134468079,-0.052981775254011154,1.555190647195559e-05
1185,24.88302035607194,3.1691510677337646,-0.007095777429640293,9.801785469055176,-1.3576753943311815e-08,-0.001631199847906828,-6.4291516537196e-06,-22.321186065673828,61.22697448730469,0.0013741302536800504,-0.5965285897254944,-0.05205287039279938,1.5547502698609605e-05
1186,24.89302035584842,2.388620138168335,0.024781467393040657,9.808256149291992,1.6151824411281268e-07,-0.0016516057075932622,-5.547080036194529e-06,-22.2827091217041,61.2265739440918,0.0013796614948660135,-0.5965317487716675,-0.05110347270965576,1.5642943253624253e-05
1187,24.903020355624903,3.068847417831421,-0.00813653226941824,9.802352905273438,1.6711709349692683e-07,-0.0014971516793593764,-5.3063281484355684e-06,-22.243927001953125,61.22616958618164,0.0013846969231963158,-0.596534788608551,-0.050242867320775986,1.5741428796900436e-05
1188,24.913020355401386,2.42832350730896,0.02519814670085907,9.808672904968262,-4.489937452945014e-07,-0.001519821467809379,-5.266930202196818e-06,-22.204904556274414,61.225765228271484,0.0013898086035624146,-0.5965378284454346,-0.04938226565718651,1.5486819393117912e-05
1189,24.92302035517787,2.988985538482666,-0.04896688088774681,9.802512168884277,9.306547212872829e-07,-0.0013732913648709655,-5.892833542020526e-06,-22.16558074951172,61.2253532409668,0.0013944243546575308,-0.5965412855148315,-0.04858996346592903,1.6022904674173333e-05
1190,24.93302035495435,2.4276344776153564,0.06519635021686554,9.808741569519043,2.5042922402462864e-07,-0.0013986643170937896,-4.871979854215169e-06,-22.126018524169922,61.224945068359375,0.0013991164742037654,-0.5965439677238464,-0.047790832817554474,1.6168631191249005e-05
1191,24.943020354730834,2.9687252044677734,-0.04917476698756218,9.802988052368164,-1.0033388520014341e-07,-0.0012590988771989942,-6.371957169903908e-06,-22.086156845092773,61.22452926635742,0.0014033508487045765,-0.5965476036071777,-0.04706000164151192,1.6114201571326703e-05
1192,24.953020354507316,2.408217191696167,-0.01500731147825718,9.807292938232422,-7.21267724657082e-07,-0.0012853145599365234,-6.152616151666734e-06,-22.046056747436523,61.2241096496582,0.0014075088547542691,-0.5965512990951538,-0.04632917046546936,1.5703857570770197e-05
1193,24.9630203542838,2.9476568698883057,0.03061293065547943,9.806892395019531,9.705844661311858e-08,-0.0011534627992659807,-4.8546839934715535e-06,-22.00566291809082,61.223690032958984,0.0014115904923528433,-0.5965540409088135,-0.045659810304641724,1.57616741489619e-05
1194,24.97302035406028,2.367988348007202,-0.01542352233082056,9.805092811584473,1.631568835591679e-08,-0.001178284757770598,-5.517557383427629e-06,-21.96503448486328,61.2232666015625,0.0014153671218082309,-0.5965571999549866,-0.044990453869104385,1.5773515769978985e-05
1195,24.983020353836764,2.9078586101531982,-0.009801069274544716,9.80774974822998,3.258601566358266e-08,-0.0010540776420384645,-4.9755444706534036e-06,-21.924114227294922,61.22283935546875,0.0014191436348482966,-0.5965597629547119,-0.04438939690589905,1.579441232024692e-05
1196,24.993020353613247,2.387362480163574,0.024782786145806313,9.804746627807617,1.2060701237714966e-07,-0.0010792912216857076,-4.65057883047848e-06,-21.88295555114746,61.222412109375,0.0014225768391042948,-0.5965626835823059,-0.04377467930316925,1.586554390087258e-05
1197,25.00302035338973,2.847245693206787,0.02957235462963581,9.80823802947998,-2.1234187741470123e-08,-0.0009628830011934042,-4.984910447092261e-06,-21.84151268005371,61.221981048583984,0.0014260482275858521,-0.5965655446052551,-0.04322143644094467,1.58555503730895e-05
1198,25.013020353166212,2.4080026149749756,-0.05500439181923866,9.80477523803711,-8.809234941509203e-08,-0.0009859348647296429,-5.405674983194331e-06,-21.79983139038086,61.2215461730957,0.0014291763072833419,-0.5965688824653625,-0.042654529213905334,1.580742718942929e-05
1199,25.023020352942694,2.8274781703948975,-0.010633336380124092,9.806400299072266,7.350187161137001e-07,-0.0008823214448057115,-5.347648766473867e-06,-21.75786781311035,61.221107482910156,0.0014321517664939165,-0.5965719223022461,-0.042149096727371216,1.623079697310459e-05
1200,25.033020352719177,2.4069983959198,0.024991663172841072,9.809015274047852,9.422807352166274e-07,-0.0008995560347102582,-4.286046532797627e-06,-21.71566390991211,61.22066879272461,0.0014352034777402878,-0.5965742468833923,-0.04163683205842972,1.6772466551628895e-05
1201,25.04302035249566,2.747314453125,-0.011465980671346188,9.804976463317871,1.6684072079442558e-07,-0.0008092576172202826,-3.3930268727999646e-06,-21.673185348510742,61.22022247314453,0.0014379500644281507,-0.5965761542320251,-0.04117237776517868,1.686944415268954e-05
1202,25.053020352272142,2.44683575630188,0.025408240035176277,9.80826473236084,-3.948013329591049e-07,-0.000818481610622257,-1.497780431236606e-06,-21.630462646484375,61.21977996826172,0.0014406966511160135,-0.5965770483016968,-0.04070109501481056,1.664387309574522e-05
1203,25.063020352048625,2.7271628379821777,-0.011674180626869202,9.805795669555664,-4.418799903760373e-07,-0.0007457909523509443,-2.9477878342731856e-06,-21.58747100830078,61.219329833984375,0.0014432143652811646,-0.5965787172317505,-0.040277622640132904,1.639190668356605e-05
1204,25.073020351825107,2.4271068572998047,-0.014797769486904144,9.807934761047363,-6.318624627965619e-07,-0.0007438608445227146,-3.858168383885641e-06,-21.544233322143555,61.21887969970703,0.0014456938952207565,-0.5965810418128967,-0.039847321808338165,1.603138298378326e-05
1205,25.08302035160159,2.6466097831726074,0.027490900829434395,9.806654930114746,9.962503781935084e-07,-0.0006884235772304237,-3.2739546895754756e-06,-21.500734329223633,61.21842575073242,0.0014480209210887551,-0.5965826511383057,-0.03945117071270943,1.6603513358859345e-05
1206,25.093020351378073,2.5069684982299805,-0.013964611105620861,9.808293342590332,-3.850133794003341e-07,-0.0006778164533898234,-2.126768322341377e-06,-21.45698356628418,61.21797180175781,0.001450347830541432,-0.596583902835846,-0.03906184807419777,1.6383764886995777e-05
1207,25.103020351154555,2.586484432220459,0.02686626836657524,9.806349754333496,3.7422702803269203e-07,-0.0006359203835017979,-1.5516494613621035e-06,-21.412975311279297,61.21751403808594,0.0014524840516969562,-0.5965847373008728,-0.03869985044002533,1.6598783986410126e-05
1208,25.113020350931038,2.506845235824585,-0.013964522629976273,9.807562828063965,-3.8541205071851437e-07,-0.0006197671755217016,-1.9179883565811906e-06,-21.368717193603516,61.2170524597168,0.0014545440208166838,-0.5965859293937683,-0.03834468126296997,1.6378709915443324e-05
1209,25.12302035070752,2.546785593032837,-0.013548025861382484,9.807550430297852,-3.592996051793307e-07,-0.0005884705460630357,-1.7291026779275853e-06,-21.32420539855957,61.216590881347656,0.001456527621485293,-0.5965869426727295,-0.03801000118255615,1.6173513358808123e-05
1210,25.133020350484003,2.486316442489624,0.025825241580605507,9.807604789733887,9.661612239142414e-07,-0.0005691744154319167,-2.8435722470021574e-06,-21.27944564819336,61.21612548828125,0.0014584349701181054,-0.596588671207428,-0.03768215328454971,1.6728174159652553e-05
1211,25.143020350260485,2.526676654815674,-0.013756085187196732,9.807592391967773,-6.99874249221466e-07,-0.0005419371882453561,-3.322509428471676e-06,-21.234432220458984,61.21565628051758,0.0014602660667151213,-0.596590518951416,-0.037367962300777435,1.6328411220456474e-05
1212,25.153020350036968,2.5270440578460693,-0.053753841668367386,9.807604789733887,-2.661128029046722e-08,-0.0005223119514994323,-3.028232640645001e-06,-21.18916893005371,61.21518325805664,0.0014620207948610187,-0.5965923070907593,-0.037081096321344376,1.6314326785504818e-05
1213,25.16302034981345,2.485748052597046,0.06582315266132355,9.807642936706543,-5.327407279764884e-07,-0.000499069457873702,-2.0516074528131867e-06,-21.143657684326172,61.2147102355957,0.0014636992709711194,-0.5965933799743652,-0.03679422661662102,1.6009860701160505e-05
1214,25.173020349589933,2.526947259902954,-0.05375377833843231,9.807629585266113,1.766483315179812e-08,-0.00047936633927747607,-2.5754297894309275e-06,-21.09789276123047,61.2142333984375,0.0014653014950454235,-0.5965948700904846,-0.03651418909430504,1.6020960174500942e-05
1215,25.183020349366416,2.4856557846069336,0.06582337617874146,9.8080472946167,9.014721058520081e-07,-0.00045806958223693073,-2.3830154987081187e-06,-21.051881790161133,61.21375274658203,0.0014668655348941684,-0.596596360206604,-0.0362546406686306,1.6538322597625665e-05
1216,25.1930203491429,2.486860513687134,-0.05417005345225334,9.807297706604004,-2.1663035454366764e-07,-0.0004395857686176896,-3.587103492463939e-06,-21.00562286376953,61.2132682800293,0.0014683151384815574,-0.5965983867645264,-0.03599509596824646,1.641549897613004e-05
1217,25.20302034891938,2.4659879207611084,0.025617416948080063,9.808079719543457,-3.456240804666777e-08,-0.0004208539321552962,-2.327895799680846e-06,-20.959115982055664,61.21278762817383,0.0014697265578433871,-0.596599817276001,-0.03575603663921356,1.639654510654509e-05
1218,25.213020348695864,2.5263614654541016,-0.01375560648739338,9.808055877685547,-3.483999364561896e-07,-0.00040347292087972164,-3.917026333510876e-06,-20.912357330322266,61.21229934692383,0.0014710997929796576,-0.5966019630432129,-0.03552381321787834,1.6198291632463224e-05
1219,25.223020348472346,2.4459116458892822,0.025409284979104996,9.807731628417969,-2.6355178306403104e-07,-0.00038531122845597565,-3.2475952593813417e-06,-20.8653564453125,61.21181106567383,0.0014723967760801315,-0.5966039299964905,-0.03530524671077728,1.6048474208218977e-05
1220,25.23302034824883,2.4862897396087646,-0.014171906746923923,9.807716369628906,5.060959438196733e-07,-0.00036767349229194224,-3.7318895920179784e-06,-20.818105697631836,61.2113151550293,0.0014736175071448088,-0.5966060161590576,-0.035093508660793304,1.6339783542207442e-05
1221,25.24302034802531,2.4662559032440186,-0.014380120672285557,9.808117866516113,-1.0232418645728103e-07,-0.00035243466845713556,-1.910346554723219e-06,-20.770610809326172,61.21082305908203,0.0014748000539839268,-0.5966070890426636,-0.034888602793216705,1.6281719581456855e-05
1222,25.253020347801794,2.465806722640991,0.02561768889427185,9.80812931060791,-9.69743268797174e-07,-0.00033698847983032465,-3.0088824587437557e-06,-20.722867965698242,61.2103271484375,0.0014759445330128074,-0.5966087579727173,-0.034697357565164566,1.5727202480775304e-05
1223,25.263020347578276,2.4861903190612793,-0.01417175680398941,9.807740211486816,4.539429596661648e-07,-0.00032179325353354216,-3.5444934383122018e-06,-20.674877166748047,61.2098274230957,0.0014770126435905695,-0.5966107845306396,-0.034512944519519806,1.5988494851626456e-05
1224,25.27302034735476,2.445747137069702,0.02540961280465126,9.80815315246582,-4.396447934595926e-07,-0.0003070227394346148,-3.50804202753352e-06,-20.62664222717285,61.20932388305664,0.0014780425699427724,-0.596612811088562,-0.03434218838810921,1.573784538777545e-05
1225,25.28302034713124,2.4861321449279785,-0.014171670190989971,9.808138847351074,-3.4437584872648586e-07,-0.00029423870728351176,-2.8733452381857205e-06,-20.578161239624023,61.20882034301758,0.0014790344284847379,-0.5966145992279053,-0.03417143598198891,1.5541454558842815e-05
1226,25.293020346907724,2.446106195449829,-0.014588139951229095,9.808167457580566,-4.574630452225392e-07,-0.00028043845668435097,-3.4331030747125624e-06,-20.529436111450195,61.20831298828125,0.0014799881028011441,-0.5966165065765381,-0.03400750830769539,1.528056600363925e-05
1227,25.303020346684207,2.4656639099121094,0.025618068873882294,9.8081636428833,4.280713881144038e-07,-0.00026818562764674425,-3.4119807423849124e-06,-20.4804630279541,61.20780563354492,0.0014809035928919911,-0.5966184139251709,-0.03386407718062401,1.5526993593084626e-05
1228,25.31302034646069,2.4660534858703613,-0.014379621483385563,9.807788848876953,2.1564777341609442e-07,-0.00025553841260261834,-4.63248034066055e-06,-20.431245803833008,61.20729446411133,0.0014817428309470415,-0.5966212153434753,-0.03370698168873787,1.5652110960218124e-05
1229,25.323020346237172,2.4464480876922607,-0.054585572332143784,9.808566093444824,9.058396699401783e-08,-0.0002443623379804194,-5.246157797955675e-06,-20.381784439086914,61.2067756652832,0.0014825820690020919,-0.5966241359710693,-0.03357037901878357,1.570582389831543e-05
1230,25.333020346013654,2.4451749324798584,0.06540803611278534,9.807812690734863,3.970605746417277e-07,-0.0002333955781068653,-3.3749865906429477e-06,-20.33207893371582,61.20625686645508,0.0014833450550213456,-0.5966259837150574,-0.03343377262353897,1.5934405382722616e-05
1231,25.343020345790137,2.446403741836548,-0.054585427045822144,9.808579444885254,-3.897217766279937e-07,-0.00022240742691792548,-2.7067430892202538e-06,-20.282127380371094,61.20573425292969,0.0014841079246252775,-0.5966275334358215,-0.03331083059310913,1.5712063031969592e-05
1232,25.35302034556662,2.4651317596435547,0.0656164363026619,9.80819320678711,5.883592280042649e-07,-0.00021255401952657849,-2.2374451873474754e-06,-20.231929779052734,61.2052116394043,0.001484832726418972,-0.5966289043426514,-0.03318788856267929,1.604988210601732e-05
1233,25.363020345343102,2.4667673110961914,-0.05437673628330231,10.517730712890625,6.691168437100714e-07,-0.00023827143013477325,-1.9348481146153063e-06,-20.181489944458008,61.20468521118164,0.0015564727364107966,-0.5966299772262573,-0.03305128216743469,1.6433907148893923e-05
1234,25.373020345119585,2.405432939529419,0.024993855506181717,9.681591033935547,-7.609955900989007e-07,-0.00022531718423124403,-9.808550203160848e-07,-20.130807876586914,61.204158782958984,0.0016154098557308316,-0.5966305732727051,-0.03292151167988777,1.599818824615795e-05
1235,25.383020344896067,2.5058553218841553,-0.013962672092020512,9.700986862182617,-2.0733973826736474e-07,-0.00019381400488782674,-1.705766294435307e-06,-20.079875946044922,61.2036247253418,0.001663589384406805,-0.5966305732727051,-0.03292151167988777,1.599818824615795e-05
1236,25.39302034467255,2.345418691635132,0.024369029328227043,9.717110633850098,-5.24844836036209e-07,-0.0002019243547692895,1.0735786872828612e-06,-20.028709411621094,61.203094482421875,0.0017026137793436646,-0.5966309309005737,-0.032696112990379333,1.5578896636725403e-05
1237,25.403020344449033,2.5258328914642334,-0.013754459097981453,9.729978561401367,8.175322818715358e-07,-0.00015818401880096644,-2.8682486572506605e-06,-19.977291107177734,61.20255661010742,0.0017337799072265625,-0.5966309309005737,-0.032696112990379333,1.5578896636725403e-05
1238,25.413020344225515,2.3458173274993896,-0.015628818422555923,9.744964599609375,1.942319300951567e-07,-0.00019707441970240325,8.119577614706941e-06,-19.925640106201172,61.20201873779297,0.001758575439453125,-0.596627950668335,-0.032498039305210114,1.6156902347574942e-05
1239,25.423020344001998,1.1250121593475342,0.05166340619325638,9.763976097106934,3.213441743810108e-07,-0.0005055474466644228,-2.6928295483230613e-05,-19.87387466430664,61.20148468017578,0.001778831472620368,-0.5966432690620422,-0.032211169600486755,1.6349737052223645e-05
1240,25.43302034377848,1.0057692527770996,-0.029582036659121513,9.777018547058105,-8.294096005556639e-07,-0.0009033450623974204,1.1623512364167254e-05,-19.822011947631836,61.2009391784668,0.0017958449898287654,-0.5966366529464722,-0.0316852442920208,1.5870829884079285e-05
1241,25.443020343554963,-5.09454870223999,-0.05310365930199623,9.832902908325195,8.967714961727324e-07,-0.0026703928597271442,5.1885754146496765e-06,-19.77065658569336,61.20040512084961,0.0018148802919313312,-0.5966336131095886,-0.030155284330248833,1.6383046386181377e-05
1242,25.453020343331445,1.5044149160385132,0.05562010779976845,9.765375137329102,-1.194195675680021e-07,-0.0023240740410983562,3.7763638829346746e-06,-19.719154357910156,61.199867248535156,0.0018295287154614925,-0.5966315269470215,-0.02882339619100094,1.6313453670591116e-05
1243,25.463020343107928,-2.4556374549865723,0.014384489506483078,9.804680824279785,-7.3771570896497e-07,-0.0029268842190504074,-3.6202193314238684e-06,-19.667896270751953,61.19933319091797,0.001843528705649078,-0.5966335535049438,-0.027150001376867294,1.589185558259487e-05
1244,25.47302034288441,1.7447179555892944,-0.02187642827630043,9.767634391784668,-3.2472144084749743e-08,-0.0023518051020801067,-1.0217222552455496e-06,-19.61646270751953,61.19879913330078,0.0018533705733716488,-0.5966342091560364,-0.0257839635014534,1.5873538359301165e-05
1245,25.483020342660893,-2.736140727996826,0.011468786746263504,9.813823699951172,-7.459866679937477e-08,-0.002971982816234231,-3.2467517030454474e-07,-19.565305709838867,61.198265075683594,0.0018634796142578125,-0.596634566783905,-0.024096906185150146,1.583080847922247e-05
1246,25.493020342437376,2.18461012840271,-0.05729253590106964,9.76793098449707,-1.6825477677784306e-09,-0.0021828352473676205,9.155543239103281e-07,-19.51392936706543,61.19772720336914,0.0018694686004891992,-0.596634030342102,-0.02284698188304901,1.582964978297241e-05
1247,25.50302034221386,-2.3970530033111572,0.05500704050064087,9.816231727600098,1.3869156134660443e-07,-0.0026894118636846542,-2.3647658053960185e-06,-19.462793350219727,61.19719696044922,0.0018759918166324496,-0.5966352224349976,-0.021303359419107437,1.590964529896155e-05
1248,25.51302034199034,2.423738956451416,-0.014795401133596897,9.771379470825195,8.990701303446258e-07,-0.0018356741638854146,-9.238993357030267e-07,-19.411415100097656,61.196659088134766,0.0018787384033203125,-0.5966357588768005,-0.02025151066482067,1.6424988643848337e-05
1249,25.523020341766824,-2.137059211730957,0.017716778442263603,9.819478988647461,1.0843440350072342e-06,-0.0023190241772681475,-7.504999643970223e-08,-19.36025047302246,61.19612503051758,0.0018823622958734632,-0.5966359376907349,-0.018912792205810547,1.704627175058704e-05
1250,25.533020341543306,2.6833598613739014,-0.012087995186448097,9.773677825927734,-3.327998570057389e-07,-0.0014301568735390902,2.4954022137535503e-06,-19.308820724487305,61.19559097290039,0.0018824386643245816,-0.5966343283653259,-0.01810683123767376,1.685515780991409e-05
1251,25.54302034131979,-1.9178131818771362,0.06000552698969841,9.82315731048584,3.864560937927308e-07,-0.001912834937684238,-7.335002010222524e-07,-19.257579803466797,61.19506072998047,0.001883773715235293,-0.5966347455978394,-0.017007170245051384,1.707669252937194e-05
1252,25.55302034109627,2.9234774112701416,-0.0495866984128952,9.775975227355957,-5.759595183008059e-07,-0.001020182971842587,5.068358746029844e-07,-19.20604705810547,61.19452667236328,0.0018817901145666838,-0.5966346263885498,-0.016426604241132736,1.674661871220451e-05
1253,25.563020340872754,-1.656826376914978,-0.057280704379081726,9.825709342956543,-7.616411608069029e-07,-0.0015180254122242332,-7.281777243406395e-07,-19.154680252075195,61.19398880004883,0.0018813323695212603,-0.5966350436210632,-0.01555234007537365,1.6310359569615684e-05
1254,25.573020340649236,3.102008104324341,0.07228104025125504,9.778660774230957,-2.8142382646478836e-08,-0.000633813557215035,1.6002971960915602e-06,-19.103004455566406,61.193450927734375,0.0018778227968141437,-0.5966341495513916,-0.015190339647233486,1.6293990483973175e-05
1255,25.58302034042572,-1.4374312162399292,-0.014992019161581993,9.827532768249512,-9.331026262771047e-08,-0.0011534338118508458,-1.674869736234541e-06,-19.05147361755371,61.19291305541992,0.001876029884442687,-0.596635103225708,-0.014520981349050999,1.624076503503602e-05
1256,25.5930203402022,3.283107280731201,-0.04583808779716492,9.78018569946289,-1.8666655421384348e-07,-0.00028654831112362444,1.867005039457581e-07,-18.999614715576172,61.1923713684082,0.0018713378813117743,-0.5966348648071289,-0.014363886788487434,1.6133782992255874e-05
1257,25.603020339978684,-1.2583825588226318,0.0668780580163002,9.82938003540039,7.933567758300342e-07,-0.0008304610964842141,1.7107616656630853e-07,-18.947879791259766,61.19183349609375,0.0018685531103983521,-0.5966347455978394,-0.013885773718357086,1.658833207329735e-05
1258,25.613020339755167,3.4830150604248047,-0.04375540465116501,9.782072067260742,-8.400299975619419e-07,1.589588100614492e-05,1.7342879345960682e-06,-18.895795822143555,61.19129180908203,0.0018630599370226264,-0.5966347455978394,-0.013885773718357086,1.658833207329735e-05
1259,25.62302033953165,-1.0780271291732788,0.028754474595189095,9.830093383789062,-2.2549680522843119e-07,-0.0005512042553164065,-1.9011005178981577e-06,-18.843822479248047,61.19075012207031,0.0018595504807308316,-0.5966348052024841,-0.013585245236754417,1.5977855582605116e-05
1260,25.633020339308132,3.642982244491577,-0.04208938777446747,9.783567428588867,6.970714707676962e-07,0.0002709834079723805,1.0679509614419658e-06,-18.791486740112305,61.19020462036133,0.0018534850096330047,-0.5966342091560364,-0.013742339797317982,1.6377098290831782e-05
1261,25.643020339084615,-0.9384556412696838,0.07021023333072662,9.831584930419922,5.136971026331594e-08,-0.0003166518872603774,1.5900856169537292e-06,-18.739240646362305,61.18966293334961,0.0018495558761060238,-0.5966333150863647,-0.013557924889028072,1.6406305803684518e-05
1262,25.653020338861097,3.782991409301758,-0.04063176363706589,9.784674644470215,-1.0568166999291861e-06,0.00048351529403589666,1.4025398513695109e-06,-18.68661880493164,61.18911361694336,0.0018431853968650103,-0.5966325998306274,-0.013837962411344051,1.5800627807038836e-05
1263,25.66302033863758,-0.777583122253418,-0.008119440637528896,9.831932067871094,5.78830395170371e-07,-0.0001232530048582703,-2.292076942467247e-06,-18.634075164794922,61.188568115234375,0.0018389892065897584,-0.5966325998306274,-0.013837962411344051,1.5800627807038836e-05
1264,25.673020338414062,3.9026196002960205,0.0006156984018161893,9.785006523132324,-4.6651763341287733e-07,0.0006540006725117564,8.455699571641162e-07,-18.58114242553711,61.18801498413086,0.0018323897384107113,-0.5966334939002991,-0.01413849089294672,1.586516918905545e-05
1265,25.683020338190545,-0.6575377583503723,-0.006869877688586712,9.833050727844238,-3.8153345371938485e-07,3.2791220291983336e-05,1.4705732382935821e-06,-18.52827262878418,61.18746566772461,0.0018280792282894254,-0.5966334939002991,-0.01413849089294672,1.586516918905545e-05
1266,25.693020337967027,4.002695083618164,0.0016567970160394907,9.785711288452148,-4.792086656379979e-07,0.0007889294647611678,1.3794352753393468e-06,-18.475006103515625,61.18690872192383,0.001821441575884819,-0.5966317057609558,-0.014609773643314838,1.5371573681477457e-05
1267,25.70302033774351,-0.5174643993377686,-0.005412121769040823,9.833403587341309,3.9595408907189267e-07,0.00015425779565703124,-2.268840034957975e-06,-18.421789169311523,61.18635177612305,0.0018171309493482113,-0.5966317057609558,-0.014609773643314838,1.5371573681477457e-05
1268,25.713020337519993,4.1023759841918945,0.042695920914411545,9.786023139953613,-2.5734021846801625e-07,0.0008905655122362077,2.866467411877238e-06,-18.3681640625,61.185794830322266,0.001810531597584486,-0.5966314673423767,-0.015210830606520176,1.545089799037669e-05
1269,25.723020337296475,-0.43734195828437805,-0.004579083528369665,9.834152221679688,-2.8481832714533084e-07,0.00024740558001212776,2.387790573266102e-06,-18.3145809173584,61.185237884521484,0.0018063354073092341,-0.5966300368309021,-0.01534743420779705,1.5287325368262827e-05
1270,25.733020337072958,4.183323383331299,-0.03646688535809517,9.785951614379883,5.700605356651067e-07,0.0009664210374467075,2.377628788963193e-06,-18.26058006286621,61.18467712402344,0.001799850375391543,-0.5966285467147827,-0.01590750925242901,1.561359385959804e-05
1271,25.74302033684944,-0.29763954877853394,0.03687667474150658,9.833735466003418,5.367506332731864e-07,0.0003157368628308177,-9.258660611521918e-07,-18.20661163330078,61.18411636352539,0.0017957305535674095,-0.5966290831565857,-0.016085093840956688,1.59212650032714e-05
1272,25.753020336625923,4.223867416381836,-0.07604823261499405,9.787027359008789,-4.770300847667386e-07,0.0010183255653828382,1.964787088581943e-06,-18.152219772338867,61.18354415893555,0.0017894363263621926,-0.5966280102729797,-0.016665659844875336,1.5647634427295998e-05
1273,25.763020336402406,-0.23792335391044617,0.07749923318624496,9.833723068237305,-1.5800185337866424e-07,0.0003613096196204424,2.895919578804751e-06,-18.097850799560547,61.18297576904297,0.0017855071928352118,-0.5966264605522156,-0.016877396032214165,1.5556617654510774e-05
1274,25.773020336178888,4.32358455657959,-0.035009343177080154,9.78731918334961,1.001850705506513e-06,0.0010501593351364136,4.524535597738577e-06,-18.043052673339844,61.18240737915039,0.0017794418381527066,-0.5966238379478455,-0.017478452995419502,1.612983032828197e-05
1275,25.78302033595537,-0.1769518405199051,-0.001871541142463684,9.83332347869873,3.090635303237832e-08,0.00039080032729543746,1.545249119772052e-06,-17.98826789855957,61.18183517456055,0.0017757033929228783,-0.5966229438781738,-0.01770384982228279,1.614726716070436e-05
1276,25.793020335731853,4.383307456970215,0.00561289070174098,9.787620544433594,-4.788101364283648e-07,0.001065926975570619,5.696490916307084e-06,-17.93305015563965,61.18125915527344,0.0017698669107630849,-0.5966195464134216,-0.01831173524260521,1.5871903087827377e-05
1277,25.803020335508336,-0.11681301146745682,-0.001246777712367475,9.834070205688477,2.7323213203089836e-07,0.00040429248474538326,4.993931725039147e-06,-17.87784194946289,61.18068313598633,0.0017664337065070868,-0.596616804599762,-0.01853030174970627,1.602753036422655e-05
1278,25.81302033528482,4.423449993133545,0.006028964649885893,9.787158966064453,4.283715497876983e-07,0.0010673408396542072,6.515836957987631e-06,-17.82219123840332,61.18009948730469,0.0017608641646802425,-0.5966129302978516,-0.019158679991960526,1.62717387865996e-05
1279,25.8230203350613,-0.03625340014696121,-0.04041147604584694,9.833283424377441,6.743114226992475e-07,0.0004062622901983559,5.144405349710723e-06,-17.76654624938965,61.17951965332031,0.0017576217651367188,-0.5966101884841919,-0.019390905275940895,1.6657106243656017e-05
1280,25.833020334837784,4.443174839019775,0.04623451456427574,9.787850379943848,1.4865814534914534e-07,0.0010578277288004756,8.682064617460128e-06,-17.7104549407959,61.17893600463867,0.0017523192800581455,-0.5966050624847412,-0.019991962239146233,1.6740554201533087e-05
1281,25.843020334614266,0.02388530969619751,-0.039786700159311295,9.83364486694336,1.1357774809539478e-07,0.00039787087007425725,7.732568519713823e-06,-17.65436363220215,61.178348541259766,0.0017493820050731301,-0.5966006517410278,-0.02021735906600952,1.6804076949483715e-05
1282,25.85302033439075,4.48331356048584,0.046650372445583344,9.787389755249023,8.542791078980372e-07,0.0010393372504040599,8.729605724511202e-06,-17.597822189331055,61.177757263183594,0.001744346576742828,-0.5965956449508667,-0.02081841602921486,1.7291744370595552e-05
1283,25.86302033416723,0.0440247468650341,-0.0395783893764019,9.833253860473633,-1.894792092116404e-07,0.0003815105592366308,4.8344454626203515e-06,-17.541278839111328,61.17716598510742,0.0017416381742805243,-0.5965928435325623,-0.02103698067367077,1.718216844892595e-05
1284,25.873020333943714,4.52386474609375,0.007068426813930273,9.788077354431152,2.850999294423673e-07,0.0010150712914764881,8.787523256614804e-06,-17.484283447265625,61.176570892333984,0.0017369078705087304,-0.5965878367424011,-0.021617546677589417,1.734365832817275e-05
1285,25.883020333720197,0.08374059945344925,0.000835983722936362,9.832476615905762,3.699144031088508e-07,0.00035818706965073943,9.345610124000814e-06,-17.427278518676758,61.17597579956055,0.0017344283405691385,-0.5965826511383057,-0.021822452545166016,1.7553571524331346e-05
1286,25.89302033349668,4.543994426727295,0.007275780197232962,9.788769721984863,-1.0779778136793539e-07,0.0009842605795711279,1.087785858544521e-05,-17.369821548461914,61.17537307739258,0.001730003277771175,-0.5965762734413147,-0.022382529452443123,1.748939757817425e-05
1287,25.90302033327316,0.12386706471443176,0.001252574846148491,9.831694602966309,1.4224635833670618e-06,0.00033145511406473815,7.970417755132075e-06,-17.31235122680664,61.174774169921875,0.0017277526203542948,-0.596571683883667,-0.022573774680495262,1.8302596799912862e-05
1288,25.913020333049644,4.543703079223633,0.047272782772779465,9.788714408874512,1.919973584563195e-07,0.000950495305005461,1.3676924936589785e-05,-17.254426956176758,61.17417526245117,0.001723556430079043,-0.5965638160705566,-0.02311335876584053,1.840948789322283e-05
1289,25.923020332826127,0.16482220590114594,-0.07832664251327515,9.832059860229492,-1.112906815592396e-07,0.0003019912401214242,1.1685496247082483e-05,-17.196487426757812,61.17356872558594,0.0017215728294104338,-0.5965571999549866,-0.02329777367413044,1.8343027477385476e-05
1290,25.93302033260261,4.5838212966918945,0.04768821969628334,9.788641929626465,7.902914944679651e-07,0.0009136334410868585,1.2670942851400468e-05,-17.138090133666992,61.17295837402344,0.001717643695883453,-0.5965500473976135,-0.023816868662834167,1.8792856280924752e-05
1291,25.943020332379092,0.14452269673347473,-0.0385369211435318,9.831682205200195,8.063344694164698e-07,0.0002692080452106893,9.483183930569794e-06,-17.07967758178711,61.17234802246094,0.0017158889677375555,-0.5965444445610046,-0.023973962292075157,1.9252553101978265e-05
1292,25.953020332155575,4.604348182678223,0.007897630333900452,9.788581848144531,3.4019222994174925e-07,0.0008760998607613146,1.4233884030545596e-05,-17.02080726623535,61.17173385620117,0.0017121887067332864,-0.5965363383293152,-0.024472566321492195,1.9444025383563712e-05
1293,25.963020331932057,0.20379552245140076,0.042083434760570526,9.831656455993652,2.950808379864611e-07,0.0002361551159992814,1.3976420632388908e-05,-16.9619140625,61.17111587524414,0.0017106628511101007,-0.5965282917022705,-0.024609170854091644,1.960966437764e-05
1294,25.97302033170854,4.5848708152771,-0.03230980038642883,9.78815746307373,-2.293717500378989e-07,0.0008370135328732431,1.601936855877284e-05,-16.902565002441406,61.17049789428711,0.0017071532784029841,-0.5965191125869751,-0.025087283924221992,1.947427517734468e-05
1295,25.983020331485022,0.22472946345806122,-0.03770403563976288,9.832027435302734,5.5768566653569e-07,0.00020209254580549896,1.1830761650344357e-05,-16.843191146850586,61.16987609863281,0.0017058562953025103,-0.5965123772621155,-0.025203397497534752,1.979085755010601e-05
1296,25.993020331261505,4.5641374588012695,0.04747650772333145,9.788884162902832,1.5951763998600654e-06,0.0007986982818692923,1.767343928804621e-05,-16.783363342285156,61.16925048828125,0.0017026519635692239,-0.5965021848678589,-0.02566101960837841,2.070032678602729e-05
1297,26.003020331037987,0.29438725113868713,0.0030226660892367363,9.830849647521973,7.524399592284681e-08,0.00016879686154425144,1.8175043805968016e-05,-16.723506927490234,61.16862487792969,0.0017015456687659025,-0.5965021848678589,-0.02566101960837841,2.070032678602729e-05
1298,26.01302033081447,4.574643611907959,0.007581078447401524,9.788074493408203,-3.4019916483885027e-07,0.0007601560209877789,1.8593336790218018e-05,-16.663192749023438,61.16799545288086,0.001698455773293972,-0.5964812636375427,-0.02619377337396145,2.053898060694337e-05
1299,26.023020330590953,0.2548975944519043,-0.03739171475172043,9.83162784576416,-4.5173459284342243e-07,0.00013591315655503422,1.4866601304674987e-05,-16.602853775024414,61.16736602783203,0.001697540283203125,-0.5964812636375427,-0.02619377337396145,2.053898060694337e-05
1300,26.033020330367435,4.584726333618164,0.007683749310672283,9.788030624389648,2.2186636670085136e-06,0.0007232442731037736,1.9910308765247464e-05,-16.542057037353516,61.16673278808594,0.001694641076028347,-0.5964609980583191,-0.026678716763854027,2.1542165995924734e-05
1301,26.043020330143918,0.3141445815563202,0.0432286337018013,9.831217765808105,5.558221687351761e-07,0.00010344580368837342,1.992954457818996e-05,-16.481229782104492,61.16609573364258,0.0016938780900090933,-0.5964609980583191,-0.026678716763854027,2.1542165995924734e-05
1302,26.0530203299204,4.565221309661865,-0.0325239934027195,9.788766860961914,1.0814931101776892e-06,0.0006869429489597678,2.0925330318277702e-05,-16.419944763183594,61.16545867919922,0.0016912078717723489,-0.5964375734329224,-0.027122680097818375,2.2469324903795496e-05
1303,26.063020329696883,0.2946391999721527,0.0030226430390030146,9.830843925476074,2.911384058279509e-07,7.154687045840546e-05,1.7768492398317903e-05,-16.358631134033203,61.164817810058594,0.0016906356904655695,-0.5964375734329224,-0.027122680097818375,2.2469324903795496e-05
1304,26.073020329473366,4.604874134063721,0.007888369262218475,9.787949562072754,6.115376436355291e-07,0.0006535614375025034,2.4590162865933962e-05,-16.296857833862305,61.1641731262207,0.0016880797920748591,-0.5964134335517883,-0.027552980929613113,2.2974949388299137e-05
1305,26.083020329249848,0.2947116792201996,0.003022607183083892,9.830460548400879,-1.0399138261618646e-07,4.193952918285504e-05,2.5091683710343204e-05,-16.235057830810547,61.16352844238281,0.0016875838628038764,-0.5964134335517883,-0.027552980929613113,2.2974949388299137e-05
1306,26.09302032902633,4.5753560066223145,-0.03242400288581848,9.789078712463379,1.0319337917508165e-07,0.0006201776559464633,2.423516707494855e-05,-16.17279815673828,61.162879943847656,0.0016852187691256404,-0.5963850617408752,-0.02791498228907585,2.2960866772336885e-05
1307,26.103020328802813,0.3243568241596222,0.043332554399967194,9.830063819885254,-2.293938194952716e-07,1.431476903235307e-05,1.8941664166050032e-05,-16.110506057739258,61.1622314453125,0.0016848754603415728,-0.5963850617408752,-0.02791498228907585,2.2960866772336885e-05
1308,26.113020328579296,4.575416564941406,-0.03242604061961174,9.78866958618164,-1.245999499133177e-07,0.0005887509323656559,2.4775441488600336e-05,-16.047758102416992,61.16157531738281,0.0016826248029246926,-0.5963599681854248,-0.02827698178589344,2.2745769456378184e-05
1309,26.12302032835578,0.3344176113605499,0.04343646019697189,9.830818176269531,4.1543214024386543e-07,-1.2231216715008486e-05,2.4153867343557067e-05,-15.984977722167969,61.16092300415039,0.0016824721824377775,-0.5963599681854248,-0.02827698178589344,2.2745769456378184e-05
1310,26.13302032813226,4.5554704666137695,-0.032636258751153946,9.78789234161377,4.84079407669924e-07,0.0005588897038251162,2.2829131921753287e-05,-15.921741485595703,61.16026306152344,0.0016803359612822533,-0.5963330864906311,-0.02859117090702057,2.3247863282449543e-05
1311,26.143020327908744,0.34488728642463684,0.0035426372196525335,9.830811500549316,-1.5255753851306508e-06,-3.729347008629702e-05,1.1924756108783185e-05,-15.858470916748047,61.159603118896484,0.001680297777056694,-0.5963330864906311,-0.02859117090702057,2.3247863282449543e-05
1312,26.153020327685226,4.555102348327637,0.00736020365729928,9.788250923156738,-2.8111010124121094e-06,0.000531161145772785,8.96263009053655e-06,-15.794747352600098,61.158939361572266,0.0016783141763880849,-0.596321165561676,-0.028871208429336548,2.0757179299835116e-05
1313,26.16302032746171,0.36493366956710815,0.0037502902559936047,9.829654693603516,-1.3904694924349315e-06,-6.091846807976253e-05,8.7590497059864e-06,-15.730985641479492,61.15827560424805,0.0016783141763880849,-0.596321165561676,-0.028871208429336548,2.0757179299835116e-05
1314,26.17302032723819,4.545147895812988,0.007255089934915304,9.78938102722168,-1.430850829819974e-06,0.0005061827832832932,8.10834262665594e-06,-15.666770935058594,61.1576042175293,0.001676483079791069,-0.5963115096092224,-0.029130754992365837,1.9135781258228235e-05
1315,26.183020327014674,0.3549785614013672,0.003645877353847027,9.829277038574219,1.8827056180725776e-07,-8.249725215137005e-05,5.159694410394877e-06,-15.602519989013672,61.15693664550781,0.001676597516052425,-0.5963115096092224,-0.029130754992365837,1.9135781258228235e-05
1316,26.193020326791157,4.525603771209717,-0.03295156732201576,9.788607597351074,-4.929893862026802e-07,0.0004812039842363447,9.012542250275146e-06,-15.53781795501709,61.1562614440918,0.0016748046036809683,-0.596303403377533,-0.029356151819229126,1.8957081920234486e-05
1317,26.20302032656764,0.404598593711853,0.04416399449110031,9.830013275146484,-7.355699267463933e-07,-0.00010228278551949188,8.820726179692429e-06,-15.473076820373535,61.15559005737305,0.00167503347620368,-0.596303403377533,-0.029356151819229126,1.8957081920234486e-05
1318,26.21302032634412,4.49564266204834,-0.03326454013586044,9.788990020751953,7.451548640347028e-07,0.00045858934754505754,8.048931704252027e-06,-15.407885551452637,61.154911041259766,0.0016733931843191385,-0.5962937474250793,-0.029574718326330185,1.895764216897078e-05
1319,26.223020326120604,0.40505197644233704,0.004166092723608017,9.82924747467041,-7.027924766589422e-07,-0.00012150709517300129,5.173923000256764e-06,-15.34265422821045,61.154232025146484,0.0016736984252929688,-0.5962937474250793,-0.029574718326330185,1.895764216897078e-05
1320,26.233020325897087,4.495254039764404,0.006732577923685312,9.788594245910645,-6.941739343346853e-07,0.00043735996587201953,7.629721039847936e-06,-15.27697467803955,61.15354919433594,0.0016720962012186646,-0.5962863564491272,-0.029738642275333405,1.8153359633288346e-05
1321,26.24302032567357,0.4046638309955597,0.04416373744606972,9.829248428344727,-1.3743462545789953e-07,-0.00013870740076527,6.316137842077296e-06,-15.211254119873047,61.15286636352539,0.0016724395100027323,-0.5962863564491272,-0.029738642275333405,1.8153359633288346e-05
1322,26.253020325450052,4.4861159324646,-0.07336779683828354,9.789730072021484,-2.1422746954158356e-07,0.00041788030648604035,7.127989647415234e-06,-15.145086288452148,61.15217590332031,0.0016709899064153433,-0.5962785482406616,-0.029902566224336624,1.7947902961168438e-05
1323,26.263020325226535,0.4146910309791565,0.044267717748880386,9.828478813171387,-8.92018931608618e-07,-0.0001541553356219083,4.813761279365281e-06,-15.078877449035645,61.1514892578125,0.0016714095836505294,-0.5962785482406616,-0.029902566224336624,1.7947902961168438e-05
1324,26.273020325003017,4.475309371948242,0.006523117423057556,9.789342880249023,-1.321136323895189e-06,0.0003991852281615138,5.544603482121602e-06,-15.012221336364746,61.150794982910156,0.0016699981642886996,-0.5962727069854736,-0.030052831396460533,1.6676738596288487e-05
1325,26.2830203247795,0.4151332974433899,0.004269622266292572,9.828859329223633,1.114978431360214e-06,-0.0001685543538769707,4.353041731519625e-06,-14.945524215698242,61.15010070800781,0.0016704940935596824,-0.5962727069854736,-0.030052831396460533,1.6676738596288487e-05
1326,26.293020324555982,4.475746154785156,-0.0334751233458519,9.78895092010498,-4.4951951849725447e-07,0.000382690952392295,6.213412689248798e-06,-14.87838077545166,61.1494026184082,0.00166912074200809,-0.5962666273117065,-0.030175773426890373,1.705485010461416e-05
1327,26.303020324332465,0.39471927285194397,0.044059280306100845,9.82886791229248,-4.83062535749923e-07,-0.00018229887064080685,3.4694869555096375e-06,-14.811197280883789,61.148704528808594,0.001669654855504632,-0.5962646007537842,-0.030059661716222763,1.677702493907418e-05
1328,26.313020324108948,4.485762596130371,-0.03337151184678078,9.789323806762695,-6.317116572063242e-07,0.0003671796584967524,4.10253096561064e-06,-14.743566513061523,61.14800262451172,0.0016683577559888363,-0.5962622165679932,-0.030271396040916443,1.6413843695772812e-05
1329,26.32302032388543,0.4051525890827179,0.004165413323789835,9.828861236572266,-1.3807094489948213e-07,-0.00019333011005073786,2.33360742640798e-06,-14.675895690917969,61.14729690551758,0.001668968121521175,-0.5962609052658081,-0.030162114650011063,1.6334022802766412e-05
1330,26.333020323661913,4.455364227294922,0.006313747726380825,9.78933048248291,-7.907281656116538e-07,0.00035222500446252525,4.227318640914746e-06,-14.607779502868652,61.14659118652344,0.0016677475068718195,-0.5962585210800171,-0.030367018654942513,1.5879673810559325e-05
1331,26.343020323438395,0.41516590118408203,0.004269297234714031,9.828474044799805,-8.037842462726985e-07,-0.00020496691286098212,1.972214704437647e-06,-14.53962230682373,61.14588165283203,0.0016683959402143955,-0.5962574481964111,-0.030244076624512672,1.5418538168887608e-05
1332,26.353020323214878,4.455376148223877,0.0063135623931884766,9.789323806762695,4.667518851420027e-07,0.0003391523496247828,1.354768187411537e-06,-14.471019744873047,61.14516830444336,0.0016672133933752775,-0.5962565541267395,-0.03043532185256481,1.5685604012105614e-05
1333,26.36302032299136,0.4151776134967804,0.004269285127520561,9.828476905822754,-5.132644673722098e-07,-0.00021461227152030915,1.4685502947031637e-07,-14.40237808227539,61.14445495605469,0.0016679000109434128,-0.5962564945220947,-0.030312377959489822,1.539142795081716e-05
1334,26.373020322767843,4.435804843902588,-0.03389246016740799,9.789326667785645,2.1141816830549942e-07,0.0003277172218076885,5.17378794029355e-07,-14.333292007446289,61.14373779296875,0.001666755648329854,-0.5962561964988708,-0.03050362318754196,1.5512388927163556e-05
1335,26.383020322544326,0.42477133870124817,0.04437112808227539,9.828471183776855,-8.58198006881139e-07,-0.00022409811208490282,-2.3383320240100147e-06,-14.264163970947266,61.14302062988281,0.0016674804501235485,-0.5962575078010559,-0.030373848974704742,1.5021420040284283e-05
1336,26.393020322320808,4.415815353393555,-0.0341004841029644,9.789336204528809,-1.8906062848600413e-07,0.0003162347129546106,-2.2932517822482623e-06,-14.194594383239746,61.14229965209961,0.0016663741553202271,-0.596258819103241,-0.030558263882994652,1.4913785889802966e-05
1337,26.40302032209729,0.4351962208747864,0.004477244336158037,9.828081130981445,-1.251486082765041e-06,-0.00023207141202874482,-4.06713979828055e-06,-14.124982833862305,61.14157485961914,0.0016670989571139216,-0.5962611436843872,-0.030428491532802582,1.4197999917087145e-05
1338,26.413020321873773,4.425405979156494,0.006001623813062906,9.78971004486084,-8.03615364475263e-07,0.00030590847018174827,-5.133447302796412e-06,-14.05492877960205,61.14085006713867,0.0016660308465361595,-0.596264123916626,-0.03059924580156803,1.3739130736212246e-05
1339,26.423020321650256,0.4247865676879883,0.04437095671892166,9.828469276428223,-3.289312928700383e-07,-0.00023940186656545848,-7.973869287525304e-06,-13.984832763671875,61.14012145996094,0.0016668319003656507,-0.5962687134742737,-0.030462641268968582,1.3553058124671225e-05
1340,26.43302032142674,4.396245002746582,-0.0743054524064064,9.788958549499512,8.12560585927713e-07,0.0002960614219773561,-8.936061021813657e-06,-13.914298057556152,61.13938903808594,0.0016657637897878885,-0.5962738394737244,-0.03063339740037918,1.4021411516296212e-05
1341,26.44302032120322,0.44479134678840637,0.04457900673151016,9.82845687866211,-2.568697482274729e-06,-0.0002457693626638502,-1.134643389377743e-05,-13.843719482421875,61.13865661621094,0.0016665649600327015,-0.5962803363800049,-0.030496792867779732,1.255308961845003e-05
1342,26.453020320979704,4.375418186187744,0.005482741631567478,9.79011344909668,-1.4683383824376506e-06,0.000287059840047732,-1.2991681614948902e-05,-13.77270221710205,61.13792037963867,0.0016656112857162952,-0.596287727355957,-0.03065388649702072,1.1715796063072048e-05
1343,26.463020320756186,0.4560413956642151,-0.07531051337718964,9.827305793762207,-7.88175725574547e-07,-0.00025256219669245183,-1.5200509551505093e-05,-13.701641082763672,61.137176513671875,0.0016664123395457864,-0.5962963700294495,-0.03051045350730419,1.1268833077338059e-05
1344,26.47302032053267,4.364588737487793,0.08537542819976807,9.790119171142578,-8.314377737406176e-07,0.0002799799549393356,-1.3247736205812544e-05,-13.630145072937012,61.13643264770508,0.0016654586652293801,-0.5963039994239807,-0.03066754713654518,1.0796519745781552e-05
1345,26.48302032030915,0.4460445046424866,-0.07541456073522568,9.827691078186035,-1.7376122229961766e-07,-0.0002576536498963833,-1.5190281374088954e-05,-13.558603286743164,61.13568878173828,0.0016662979032844305,-0.5963127017021179,-0.03052411414682865,1.0701613973651547e-05
1346,26.493020320085634,4.365008354187012,0.045378852635622025,9.790117263793945,-3.7855770074202155e-07,0.000271888158749789,-1.4810698303335812e-05,-13.486626625061035,61.13494110107422,0.0016653822967782617,-0.5963212251663208,-0.03068803809583187,1.0489199667063076e-05
1347,26.503020319862117,0.44562938809394836,-0.03541666641831398,9.827693939208984,-3.884122179442784e-07,-0.00026253724354319274,-1.6130577932926826e-05,-13.414605140686035,61.13418960571289,0.0016662597190588713,-0.5963304042816162,-0.03053094446659088,1.0271626706526149e-05
1348,26.5130203196386,4.355424880981445,0.005278199445456266,9.789738655090332,-4.137332894060819e-07,0.0002648902591317892,-1.4610026482841931e-05,-13.34214973449707,61.13343048095703,0.0016653442289680243,-0.5963388085365295,-0.03068803809583187,1.0039031622000039e-05
1349,26.52302031941508,0.46521079540252686,0.004789419937878847,9.82768440246582,-1.666465720973065e-08,-0.0002658593002706766,-1.5152992091316264e-05,-13.269648551940918,61.13267517089844,0.001666221534833312,-0.5963475108146667,-0.03052411414682865,1.0034146725956816e-05
1350,26.533020319191564,4.315427303314209,0.004863122943788767,9.790521621704102,4.781417928256815e-08,0.00025893759448081255,-1.3519255844585132e-05,-13.196714401245117,61.13191223144531,0.0016653822967782617,-0.5963552594184875,-0.03068803809583187,1.0065686183224898e-05
1351,26.543020318968047,0.4756262004375458,-0.0351041816174984,9.826915740966797,2.2517990316828218e-07,-0.0002694828435778618,-1.2775852155755274e-05,-13.123735427856445,61.13114929199219,0.0016662597190588713,-0.5963625311851501,-0.03052411414682865,1.0198580639553256e-05
1352,26.55302031874453,4.305424213409424,0.004760052543133497,9.79053020477295,5.381042456065188e-07,0.0002527856850065291,-8.995229109132197e-06,-13.050324440002441,61.1303825378418,0.001665420481003821,-0.5963677167892456,-0.03066754713654518,1.0509666026337072e-05
1353,26.563020318521012,0.47479116916656494,0.04489164054393768,9.82691478729248,2.02708790197903e-07,-0.00027356480131857097,-8.628672730992548e-06,-12.97686767578125,61.12961959838867,0.0016662979032844305,-0.596372663974762,-0.03051045350730419,1.0628464224282652e-05
1354,26.573020318297495,4.305838108062744,-0.035236965864896774,9.790534019470215,9.016822559715365e-07,0.00024736596969887614,-7.661326890229248e-06,-12.90298080444336,61.12884521484375,0.0016654586652293801,-0.5963771343231201,-0.03065388649702072,1.114740371122025e-05
1355,26.583020318073977,0.47520557045936584,0.0048940759152174,9.827676773071289,1.0443559403938707e-06,-0.0002754426677711308,-8.403656465816312e-06,-12.829046249389648,61.128074645996094,0.0016664123395457864,-0.5963818430900574,-0.030496792867779732,1.174832596007036e-05
1356,26.59302031785046,4.295418739318848,0.004657594487071037,9.789776802062988,1.3676188928002375e-06,0.00024213702999986708,-4.906019057671074e-06,-12.754683494567871,61.12730026245117,0.001665573101490736,-0.5963847637176514,-0.03063339740037918,1.2533443623397034e-05
1357,26.603020317626942,0.46520256996154785,0.004790176171809435,9.82768440246582,5.8515670531278374e-08,-0.00027802816475741565,-4.994740720576374e-06,-12.68027400970459,61.126522064208984,0.0016665267758071423,-0.5963875651359558,-0.030476301908493042,1.2568461897899397e-05
1358,26.613020317403425,4.285417079925537,0.004553927108645439,9.790163040161133,1.409897208759503e-06,0.00023774709552526474,-1.6155504454218317e-06,-12.605438232421875,61.12574005126953,0.0016657257219776511,-0.5963884592056274,-0.03061973676085472,1.3376769857131876e-05
1359,26.623020317179908,0.47561588883399963,-0.03510330989956856,9.82729721069336,1.146775389315735e-06,-0.00028013030532747507,-3.961762331528007e-07,-12.530553817749023,61.12495803833008,0.0016666793962940574,-0.5963886976242065,-0.030462641268968582,1.4033944353286643e-05
1360,26.63302031695639,4.254997730255127,0.04423946142196655,9.790182113647461,-2.606452653708402e-07,0.00023319186584558338,3.3615044685575413e-06,-12.455245018005371,61.12417221069336,0.0016658782260492444,-0.5963868498802185,-0.0305924154818058,1.3883593055652454e-05
1361,26.643020316732873,0.4856094717979431,-0.03499918431043625,9.827292442321777,9.215817726726527e-07,-0.000282678083749488,2.8119948183302768e-06,-12.379887580871582,61.12338638305664,0.0016668319003656507,-0.5963851809501648,-0.030428491532802582,1.441073982277885e-05
1362,26.653020316509355,4.265407562255859,0.004345453344285488,9.790178298950195,3.2101254987537686e-07,0.00022897019516676664,6.130947895144345e-06,-12.304104804992676,61.122596740722656,0.0016660308465361595,-0.5963817238807678,-0.030558263882994652,1.4592838851967826e-05
1363,26.663020316285838,0.48477208614349365,0.04499650001525879,9.827293395996094,4.896904783890932e-07,-0.0002837636275216937,5.73204397369409e-06,-12.228273391723633,61.12180709838867,0.0016669845208525658,-0.5963783264160156,-0.030401170253753662,1.4871641724312212e-05
1364,26.67302031606232,4.2358198165893555,-0.03596511110663414,9.79057788848877,6.754524974894593e-07,0.00022562657250091434,8.02055456006201e-06,-12.152020454406738,61.121009826660156,0.001666221534833312,-0.5963737368583679,-0.03052411414682865,1.5256188817147631e-05
1365,26.683020315838803,0.4951817989349365,0.005102836526930332,9.826905250549316,9.75371222011745e-07,-0.00028496779850684106,8.119446647469886e-06,-12.075716018676758,61.12021255493164,0.0016671752091497183,-0.5963691473007202,-0.030367018654942513,1.5812569472473115e-05
1366,26.693020315615286,4.225399494171143,0.003928038291633129,9.790205955505371,1.372444558001007e-06,0.00022259475372266024,1.1451168575149495e-05,-11.998991012573242,61.11941146850586,0.0016663741553202271,-0.5963625311851501,-0.030496792867779732,1.659542067500297e-05
