frame,timestamp,x,y,z,qw,qx,qy,qz,v_x (m/s),v_y (m/s),v_z (m/s),w_x (rad/s),w_y (rad/s),w_z (rad/s),acc x (m/s^2),acc y (m/s^2),acc z (m/s^2)
775,0.0,0.0,0.0,0.0,1.0,0.0,0.0,0.0,0.0,0.0,0.0,-0.002153,0.020744,0.075806,-0.013337,0.103464,0.093086
776,10000000.0,0.0,0.0,0.0,1.0,0.0,0.0,0.0,0.0,0.0,0.0,-0.002153,0.020744,0.075806,-0.013337,0.103464,0.093086
777,20000000.0,0.0,0.0,0.0,1.0,0.0,0.0,0.0,0.0,0.0,0.0,-0.002153,0.020744,0.075806,-0.013337,0.103464,0.093086
778,30000000.0,0.0,0.0,0.0,1.0,0.0,0.0,0.0,0.0,0.0,0.0,-0.002153,0.020744,0.075806,-0.013337,0.103464,0.093086
779,40000000.0,0.0,0.0,0.0,1.0,0.0,0.0,0.0,0.0,0.0,0.0,-0.002153,0.020744,0.075806,-0.013337,0.103464,0.093086
780,50000000.0,0.0,0.0,0.0,1.0,0.0,0.0,0.0,0.0,0.0,0.0,-0.002153,0.020744,0.075806,-0.013337,0.103464,0.093086
781,60000000.0,0.0,0.0,0.0,1.0,0.0,0.0,0.0,0.0,0.0,0.0,-0.002153,0.020744,0.075806,-0.013337,0.103464,0.093086
782,70000000.0,0.0,0.0,0.0,1.0,0.0,0.0,0.0,0.0,0.0,0.0,-0.002153,0.020744,0.075806,-0.013337,0.103464,0.093086
783,80000000.0,0.0,0.0,0.0,1.0,0.0,0.0,0.0,0.0,0.0,0.0,-0.002153,0.020744,0.075806,-0.013337,0.103464,0.093086
784,90000000.0,0.0,0.0,0.0,1.0,0.0,0.0,0.0,0.0,0.0,0.0,-0.002153,0.020744,0.075806,-0.013337,0.103464,0.093086
785,100000000.0,0.0,0.0,0.0,1.0,0.0,0.0,0.0,0.0,0.0,0.0,-0.002153,0.020744,0.075806,-0.013337,0.103464,0.093086
786,110000000.0,0.0,0.0,0.0,1.0,0.0,0.0,0.0,0.0,0.0,0.0,-0.002153,0.020744,0.075806,-0.013337,0.103464,0.093086
787,120000000.0,0.0,0.0,0.0,1.0,0.0,0.0,0.0,0.0,0.0,0.0,-0.002153,0.020744,0.075806,-0.013337,0.103464,0.093086
788,130000000.0,0.0,0.0,0.0,1.0,0.0,0.0,0.0,0.0,0.0,0.0,-0.002153,0.020744,0.075806,-0.013337,0.103464,0.093086
789,140000000.0,0.0,0.0,0.0,1.0,0.0,0.0,0.0,0.0,0.0,0.0,-0.002153,0.020744,0.075806,-0.013337,0.103464,0.093086
790,150000000.0,0.0,0.0,0.0,1.0,0.0,0.0,0.0,0.0,0.0,0.0,-0.002153,0.020744,0.075806,-0.013337,0.103464,0.093086
791,160000000.0,0.0,0.0,0.0,1.0,0.0,0.0,0.0,0.0,0.0,0.0,-0.002153,0.020744,0.075806,-0.013337,0.103464,0.093086
792,170000000.0,0.0,0.0,0.0,1.0,0.0,0.0,0.0,0.0,0.0,0.0,-0.002153,0.020744,0.075806,-0.013337,0.103464,0.093086
793,180000000.0,0.0,0.0,0.0,1.0,0.0,0.0,0.0,0.0,0.0,0.0,-0.002153,0.020744,0.075806,-0.013337,0.103464,0.093086
794,190000000.0,0.0,0.0,0.0,1.0,0.0,0.0,0.0,0.0,0.0,0.0,-0.002153,0.020744,0.075806,-0.013337,0.103464,0.093086
795,200000000.0,0.0,0.0,0.0,1.0,0.0,0.0,0.0,0.0,0.0,0.0,-0.002153,0.020744,0.075806,-0.013337,0.103464,0.093086
796,210000000.0,0.0,0.0,0.0,1.0,0.0,0.0,0.0,0.0,0.0,0.0,-0.002153,0.020744,0.075806,-0.013337,0.103464,0.093086
797,220000000.0,0.0,0.0,0.0,1.0,0.0,0.0,0.0,0.0,0.0,0.0,-0.002153,0.020744,0.075806,-0.013337,0.103464,0.093086
798,230000000.0,0.0,0.0,0.0,1.0,0.0,0.0,0.0,0.0,0.0,0.0,-0.002153,0.020744,0.075806,-0.013337,0.103464,0.093086
799,240000000.0,0.0,0.0,0.0,1.0,0.0,0.0,0.0,0.0,0.0,0.0,-0.002153,0.020744,0.075806,-0.013337,0.103464,0.093086
800,250000000.0,0.0,0.0,0.0,1.0,0.0,0.0,0.0,0.0,0.0,0.0,-0.002153,0.020744,0.075806,-0.013337,0.103464,0.093086
801,260000000.0,0.0,0.0,0.0,1.0,0.0,0.0,0.0,0.0,0.0,0.0,-0.002153,0.020744,0.075806,-0.013337,0.103464,0.093086
802,270000000.0,1.42108547152e-14,6.22177030891e-05,7.1054273576e-15,1.0,0.0,0.0,0.0,-4.82688335524e-07,-0.00622082687914,9.97110127712e-09,-0.002153,0.020744,0.075806,-0.013337,0.103464,0.093086
803,280000000.0,-7.1054273576e-15,0.000114898663011,-7.1054273576e-15,1.0,0.0,0.0,0.0,-2.71232494242e-07,-0.00526638980955,1.13952882677e-08,-0.002153,0.020744,0.075806,-0.013337,0.103464,0.093086
804,290000000.0,7.1054273576e-15,0.000159187242389,0.0,1.0,0.0,0.0,0.0,-3.81435512509e-07,-0.00442978832871,-5.18786347258e-09,-0.002153,0.020744,0.075806,-0.013337,0.103464,0.093086
805,300000000.0,-7.1054273576e-15,0.000196189852431,0.0,1.0,0.0,0.0,0.0,-3.16306795867e-07,-0.00370200141333,-1.85938162651e-08,-0.002153,0.020744,0.075806,-0.013337,0.103464,0.093086
806,310000000.0,7.1054273576e-15,0.000226898118854,0.0,1.0,0.0,0.0,0.0,-2.56071274407e-07,-0.00306912418455,-2.09222883528e-09,-0.002153,0.020744,0.075806,-0.013337,0.103464,0.093086
807,320000000.0,-7.1054273576e-15,0.000252075144083,0.0,1.0,0.0,0.0,0.0,-1.94908253093e-07,-0.0025176142808,1.26232437832e-08,-0.002153,0.020744,0.075806,-0.013337,0.103464,0.093086
808,330000000.0,0.0,0.000272483797737,0.0,1.0,0.0,0.0,0.0,-5.78323984257e-08,-0.00203976617195,-2.29531904638e-09,-0.002153,0.020744,0.075806,-0.013337,0.103464,0.093086
809,340000000.0,0.0,0.000288772513159,-3.5527136788e-15,1.0,0.0,0.0,0.0,-3.08920498071e-08,-0.00162791251205,-1.42567524485e-09,-0.002153,0.020744,0.075806,-0.013337,0.103464,0.093086
810,350000000.0,0.0,0.000301475520242,-3.5527136788e-15,1.0,0.0,0.0,0.0,-4.13730276705e-08,-0.00127209664788,-1.76727998923e-09,-0.002153,0.020744,0.075806,-0.013337,0.103464,0.093086
811,360000000.0,0.0,0.000311126699668,0.0,1.0,0.0,0.0,0.0,-1.03639852256e-08,-0.000966682389844,-1.81229353757e-09,-0.002153,0.020744,0.075806,-0.013337,0.103464,0.093086
812,370000000.0,-7.1054273576e-15,0.000318183912892,3.5527136788e-15,1.0,0.0,0.0,0.0,2.36522912367e-09,-0.000706367485691,-1.93820404171e-09,-0.002153,0.020744,0.075806,-0.013337,0.103464,0.093086
813,380000000.0,0.0,0.00032302853651,-3.5527136788e-15,1.0,0.0,0.0,0.0,2.25857821334e-08,-0.000485382071929,-2.09801354078e-09,-0.002153,0.020744,0.075806,-0.013337,0.103464,0.093086
814,390000000.0,0.0,0.00032600399572,0.0,1.0,0.0,0.0,0.0,-1.0599626421e-07,-0.000296134938253,-3.57797169675e-09,-0.002153,0.020744,0.075806,-0.013337,0.103464,0.093086
815,400000000.0,0.0,0.000327377230853,0.0,1.0,0.0,0.0,0.0,4.39152607612e-08,-0.000136613845825,-2.41354425337e-09,-0.002153,0.020744,0.075806,-0.013337,0.103464,0.093086
816,410000000.0,0.0,0.000327377230853,0.0,1.0,0.0,0.0,0.0,-4.58705322615e-08,-3.09944152832e-06,-3.46206530111e-09,-0.002153,0.020744,0.075806,-0.013337,0.103464,0.093086
817,420000000.0,0.0,0.000326347304508,3.5527136788e-15,1.0,0.0,0.0,0.0,7.50802868765e-08,0.000106439591036,1.26496821906e-08,-0.002153,0.020744,0.075806,-0.013337,0.103464,0.093086
818,430000000.0,7.1054273576e-15,0.000324363703839,0.0,1.0,0.0,0.0,0.0,5.78982621846e-08,0.000197439192561,-3.92017573955e-09,-0.002153,0.020744,0.075806,-0.013337,0.103464,0.093086
819,440000000.0,0.0,0.000321655184958,-7.1054273576e-15,1.0,0.0,0.0,0.0,1.1682304546e-07,0.000271062832326,1.25203856172e-08,-0.002153,0.020744,0.075806,-0.013337,0.103464,0.093086
820,450000000.0,0.0,0.000318336416964,-7.1054273576e-15,1.0,0.0,0.0,0.0,3.67146490987e-08,0.000330533977831,-4.55285764642e-09,-0.002153,0.020744,0.075806,-0.013337,0.103464,0.093086
821,460000000.0,0.0,0.000314559903924,0.0,1.0,0.0,0.0,0.0,4.93214571406e-08,0.000377016054699,-3.77137077123e-09,-0.002153,0.020744,0.075806,-0.013337,0.103464,0.093086
822,470000000.0,-7.1054273576e-15,0.000310440082103,0.0,1.0,0.0,0.0,0.0,1.05057829103e-07,0.00041199682164,-3.5304807966e-09,-0.002153,0.020744,0.075806,-0.013337,0.103464,0.093086
823,480000000.0,7.1054273576e-15,0.000306053087112,-7.1054273576e-15,1.0,0.0,0.0,0.0,-4.17364276473e-08,0.000439548486611,-5.11764186573e-09,-0.002153,0.020744,0.075806,-0.013337,0.103464,0.093086
824,490000000.0,0.0,0.000301475520242,-3.5527136788e-15,1.0,0.0,0.0,0.0,1.4838931861e-07,0.000457258225651,-3.45561046433e-09,-0.002153,0.020744,0.075806,-0.013337,0.103464,0.093086
825,500000000.0,0.0,0.000296783400696,0.0,1.0,0.0,0.0,0.0,2.3312876074e-09,0.000468940736027,1.01282395804e-08,-0.002153,0.020744,0.075806,-0.013337,0.103464,0.093086
826,510000000.0,1.42108547152e-14,0.000292053213343,0.0,1.0,0.0,0.0,0.0,-5.75390686208e-08,0.000474262225907,-6.55522480736e-09,-0.002153,0.020744,0.075806,-0.013337,0.103464,0.093086
827,520000000.0,7.1054273576e-15,0.000287284841761,0.0,1.0,0.0,0.0,0.0,-8.36000157989e-09,0.000476350774989,-5.14353137851e-09,-0.002153,0.020744,0.075806,-0.013337,0.103464,0.093086
828,530000000.0,0.0,0.000282554537986,3.5527136788e-15,1.0,0.0,0.0,0.0,3.60153018519e-09,0.000474157335702,-5.06998532035e-09,-0.002153,0.020744,0.075806,-0.013337,0.103464,0.093086
829,540000000.0,7.1054273576e-15,0.000277862534858,0.0,1.0,0.0,0.0,0.0,-8.19456786871e-08,0.000467681878945,-5.81344661291e-09,-0.002153,0.020744,0.075806,-0.013337,0.103464,0.093086
830,550000000.0,0.0,0.00027328485157,0.0,1.0,0.0,0.0,0.0,5.04148545133e-09,0.000459070201032,2.54826808544e-08,-0.002153,0.020744,0.075806,-0.013337,0.103464,0.093086
831,560000000.0,-1.42108547152e-14,0.000268821720962,3.5527136788e-15,1.0,0.0,0.0,0.0,9.14136109031e-08,0.000448007573141,-5.87300963414e-09,-0.002153,0.020744,0.075806,-0.013337,0.103464,0.093086
832,570000000.0,0.0,0.000264472910203,0.0,1.0,0.0,0.0,0.0,2.07651638107e-07,0.000435028079664,-3.03856650941e-09,-0.002153,0.020744,0.075806,-0.013337,0.103464,0.093086
833,580000000.0,0.0,0.000260238652121,7.1054273576e-15,1.0,0.0,0.0,0.0,4.30779714122e-08,0.000422096229158,1.07949125195e-08,-0.002153,0.020744,0.075806,-0.013337,0.103464,0.093086
834,590000000.0,7.1054273576e-15,0.000256195082329,0.0,1.0,0.0,0.0,0.0,4.19918997352e-08,0.000406217557611,-5.40468692012e-09,-0.002153,0.020744,0.075806,-0.013337,0.103464,0.093086
835,600000000.0,0.0,0.000252265948799,-7.1054273576e-15,1.0,0.0,0.0,0.0,-5.61378712405e-08,0.000391368870623,-5.78796521816e-09,-0.002153,0.020744,0.075806,-0.013337,0.103464,0.093086
836,610000000.0,7.1054273576e-15,0.000248527503569,0.0,1.0,0.0,0.0,0.0,1.70560987556e-08,0.00037553787115,1.01193622371e-08,-0.002153,0.020744,0.075806,-0.013337,0.103464,0.093086
837,620000000.0,0.0,0.000244941678833,3.5527136788e-15,1.0,0.0,0.0,0.0,1.88710713722e-09,0.000360431673471,9.03601105059e-09,-0.002153,0.020744,0.075806,-0.013337,0.103464,0.093086
838,630000000.0,0.0,0.00024150847457,0.0,1.0,0.0,0.0,0.0,-4.08067107882e-10,0.00034294129,-2.11585380327e-08,-0.002153,0.020744,0.075806,-0.013337,0.103464,0.093086
839,640000000.0,7.1054273576e-15,0.000238227774386,0.0,1.0,0.0,0.0,0.0,3.68194932321e-08,0.000326967245201,-3.91899224178e-09,-0.002153,0.020744,0.075806,-0.013337,0.103464,0.093086
840,650000000.0,0.0,0.000235137878914,0.0,1.0,0.0,0.0,0.0,7.43932337954e-09,0.000309915543767,-5.28673105288e-09,-0.002153,0.020744,0.075806,-0.013337,0.103464,0.093086
841,660000000.0,-7.1054273576e-15,0.000232200603929,0.0,1.0,0.0,0.0,0.0,-7.14930692425e-08,0.00029511449975,2.43094451236e-08,-0.002153,0.020744,0.075806,-0.013337,0.103464,0.093086
842,670000000.0,7.1054273576e-15,0.000229415833022,0.0,1.0,0.0,0.0,0.0,6.09534254181e-08,0.000279378873529,-6.58282939264e-09,-0.002153,0.020744,0.075806,-0.013337,0.103464,0.093086
843,680000000.0,7.1054273576e-15,0.000229415833022,0.0,1.0,0.0,0.0,0.0,0.0,0.0,0.0,-0.002153,0.020744,0.075806,-0.013337,0.103464,0.093086
844,690000000.0,7.1054273576e-15,0.000229415833022,0.0,1.0,0.0,0.0,0.0,3.69266857092e-08,6.46686530672e-05,-1.45827181441e-08,-0.002153,0.020744,0.075806,-0.013337,0.103464,0.093086
845,700000000.0,0.0,0.000227928161625,0.0,1.0,0.0,0.0,0.0,-3.0176821042e-08,8.58211496961e-05,1.43729605996e-09,-0.002153,0.020744,0.075806,-0.013337,0.103464,0.093086
846,710000000.0,7.1054273576e-15,0.000226898118854,0.0,1.0,0.0,0.0,0.0,-5.14705078558e-09,0.000102205274743,1.26114452215e-09,-0.002153,0.020744,0.075806,-0.013337,0.103464,0.093086
847,720000000.0,0.0,0.00022575375624,-3.5527136788e-15,1.0,0.0,0.0,0.0,3.6264044212e-08,0.000115137096145,-1.32973871914e-08,-0.002153,0.020744,0.075806,-0.013337,0.103464,0.093086
848,730000000.0,0.0,0.000224494957358,0.0,1.0,0.0,0.0,0.0,7.08832414986e-09,0.000125131598907,-1.22400249935e-08,-0.002153,0.020744,0.075806,-0.013337,0.103464,0.093086
849,740000000.0,0.0,0.000223159790039,-3.5527136788e-15,1.0,0.0,0.0,0.0,-3.49467477179e-08,0.000132112501888,3.12152548257e-09,-0.002153,0.020744,0.075806,-0.013337,0.103464,0.093086
850,750000000.0,7.1054273576e-15,0.000221786438487,7.1054273576e-15,1.0,0.0,0.0,0.0,-4.40938947577e-08,0.000137891765917,1.7898662108e-08,-0.002153,0.020744,0.075806,-0.013337,0.103464,0.093086
851,760000000.0,0.0,0.000220375019119,0.0,1.0,0.0,0.0,0.0,6.38983834733e-08,0.000139274590765,-1.21759420324e-08,-0.002153,0.020744,0.075806,-0.013337,0.103464,0.093086
852,770000000.0,-7.1054273576e-15,0.000218963599757,0.0,1.0,0.0,0.0,0.0,-2.58582257828e-08,0.000141048425576,4.22832258098e-09,-0.002153,0.020744,0.075806,-0.013337,0.103464,0.093086
853,780000000.0,7.1054273576e-15,0.000217552180398,0.0,1.0,0.0,0.0,0.0,-6.91536357067e-08,0.000141229626024,3.18167292514e-09,-0.002153,0.020744,0.075806,-0.013337,0.103464,0.093086
854,790000000.0,0.0,0.000216140761037,0.0,1.0,0.0,0.0,0.0,4.94857381739e-08,0.00014015196939,4.63022420406e-09,-0.002153,0.020744,0.075806,-0.013337,0.103464,0.093086
855,800000000.0,-7.1054273576e-15,0.000214767409489,7.1054273576e-15,1.0,0.0,0.0,0.0,4.36559446371e-08,0.000137481692946,-1.02724584394e-08,-0.002153,0.020744,0.075806,-0.013337,0.103464,0.093086
856,810000000.0,0.0,0.000213394174349,-7.1054273576e-15,1.0,0.0,0.0,0.0,-2.93564923481e-08,0.000135650625452,5.46227596489e-09,-0.002153,0.020744,0.075806,-0.013337,0.103464,0.093086
857,820000000.0,0.0,0.000212059007026,0.0,1.0,0.0,0.0,0.0,-5.60001556238e-09,0.000133047098643,5.30453148076e-09,-0.002153,0.020744,0.075806,-0.013337,0.103464,0.093086
858,830000000.0,7.1054273576e-15,0.000210800091732,0.0,1.0,0.0,0.0,0.0,-1.70343128492e-09,0.000127763749333,5.56640422647e-09,-0.002153,0.020744,0.075806,-0.013337,0.103464,0.093086
859,840000000.0,-7.1054273576e-15,0.000209541292858,-7.1054273576e-15,1.0,0.0,0.0,0.0,-1.06954023416e-09,0.000124273297843,5.96079008377e-09,-0.002153,0.020744,0.075806,-0.013337,0.103464,0.093086
860,850000000.0,0.0,0.000208358746015,-3.5527136788e-15,1.0,0.0,0.0,0.0,3.62778571628e-08,0.000120077129395,-8.58465742935e-09,-0.002153,0.020744,0.075806,-0.013337,0.103464,0.093086
861,860000000.0,0.0,0.000207214266997,0.0,1.0,0.0,0.0,0.0,7.17264780903e-09,0.000114383692562,-7.79453745989e-09,-0.002153,0.020744,0.075806,-0.013337,0.103464,0.093086
862,870000000.0,0.0,0.000206108088598,7.1054273576e-15,1.0,0.0,0.0,0.0,-3.37514656223e-08,0.000110149383545,6.98208424413e-09,-0.002153,0.020744,0.075806,-0.013337,0.103464,0.093086
863,880000000.0,7.1054273576e-15,0.000205039978027,0.0,1.0,0.0,0.0,0.0,-5.75697622907e-09,0.000105352402898,6.56652199285e-09,-0.002153,0.020744,0.075806,-0.013337,0.103464,0.093086
864,890000000.0,7.1054273576e-15,0.000205039978027,0.0,1.0,0.0,0.0,0.0,3.58489309349e-08,0.000100021359685,-7.92864973673e-09,-0.002153,0.020744,0.075806,-0.013337,0.103464,0.093086
865,900000000.0,0.0,0.000203094445162,-3.5527136788e-15,1.0,0.0,0.0,0.0,-2.9866779272e-08,9.58824166446e-05,7.56982299067e-09,-0.002153,0.020744,0.075806,-0.013337,0.103464,0.093086
866,910000000.0,0.0,0.000203094445162,-3.5527136788e-15,1.0,0.0,0.0,0.0,-6.95517030636e-08,9.05704509933e-05,6.24396534478e-09,-0.002153,0.020744,0.075806,-0.013337,0.103464,0.093086
867,920000000.0,-1.42108547152e-14,0.000201301532794,0.0,1.0,0.0,0.0,0.0,8.78921184722e-08,8.63265959197e-05,-7.58544338452e-09,-0.002153,0.020744,0.075806,-0.013337,0.103464,0.093086
868,930000000.0,-1.42108547152e-14,0.000201301532794,0.0,1.0,0.0,0.0,0.0,-2.2798202437e-08,8.11958307168e-05,7.79036746225e-09,-0.002153,0.020744,0.075806,-0.013337,0.103464,0.093086
869,940000000.0,0.0,0.000199737492945,0.0,1.0,0.0,0.0,0.0,-3.18645776431e-09,7.71999330027e-05,6.78766109986e-09,-0.002153,0.020744,0.075806,-0.013337,0.103464,0.093086
870,950000000.0,0.0,0.000199737492945,0.0,1.0,0.0,0.0,0.0,-2.83286087921e-08,7.37094887882e-05,-8.55794279885e-09,-0.002153,0.020744,0.075806,-0.013337,0.103464,0.093086
871,960000000.0,-7.1054273576e-15,0.000198326073583,0.0,1.0,0.0,0.0,0.0,5.80927128624e-08,6.91604582244e-05,-6.45372599804e-09,-0.002153,0.020744,0.075806,-0.013337,0.103464,0.093086
872,970000000.0,-7.1054273576e-15,0.000198326073583,0.0,1.0,0.0,0.0,0.0,-2.58513814799e-08,6.57558412058e-05,7.62419460899e-09,-0.002153,0.020744,0.075806,-0.013337,0.103464,0.093086
873,980000000.0,0.0,0.000197067274708,-3.5527136788e-15,1.0,0.0,0.0,0.0,-3.98554655945e-09,6.22081715846e-05,6.92653623348e-09,-0.002153,0.020744,0.075806,-0.013337,0.103464,0.093086
874,990000000.0,0.0,0.000197067274708,-3.5527136788e-15,1.0,0.0,0.0,0.0,-8.65951754747e-10,5.81073763897e-05,7.09280456591e-09,-0.002153,0.020744,0.075806,-0.013337,0.103464,0.093086
875,1000000000.0,7.1054273576e-15,0.000195960979905,-3.5527136788e-15,1.0,0.0,0.0,0.0,3.70422661433e-08,5.38921340194e-05,-7.7359878503e-09,-0.002153,0.020744,0.075806,-0.013337,0.103464,0.093086
876,1010000000.0,7.1054273576e-15,0.000195960979905,-3.5527136788e-15,1.0,0.0,0.0,0.0,7.92052556875e-09,5.17082189617e-05,-7.14930648015e-09,-0.002153,0.020744,0.075806,-0.013337,0.103464,0.093086
877,1020000000.0,7.1054273576e-15,0.000195960979905,-3.5527136788e-15,1.0,0.0,0.0,0.0,-3.45481687702e-08,4.71878047392e-05,7.4676371753e-09,-0.002153,0.020744,0.075806,-0.013337,0.103464,0.093086
878,1030000000.0,-7.1054273576e-15,0.000194511376321,0.0,1.0,0.0,0.0,0.0,-5.59728707827e-09,4.41265110567e-05,6.4821965573e-09,-0.002153,0.020744,0.075806,-0.013337,0.103464,0.093086
879,1040000000.0,-7.1054273576e-15,0.000194511376321,0.0,1.0,0.0,0.0,0.0,-3.09274245103e-10,4.21333315899e-05,6.33029051401e-09,-0.002153,0.020744,0.075806,-0.013337,0.103464,0.093086
880,1050000000.0,-7.1054273576e-15,0.000194511376321,0.0,1.0,0.0,0.0,0.0,3.78753419739e-08,3.87096406484e-05,-8.63344595813e-09,-0.002153,0.020744,0.075806,-0.013337,0.103464,0.093086
881,1060000000.0,0.0,0.000193328829475,3.5527136788e-15,1.0,0.0,0.0,0.0,-5.81229215868e-08,3.67259963241e-05,-8.89119711189e-09,-0.002153,0.020744,0.075806,-0.013337,0.103464,0.093086
882,1070000000.0,0.0,0.000193328829475,3.5527136788e-15,1.0,0.0,0.0,0.0,1.78208789947e-08,3.39603429893e-05,6.75715083887e-09,-0.002153,0.020744,0.075806,-0.013337,0.103464,0.093086
883,1080000000.0,0.0,0.000193328829475,3.5527136788e-15,1.0,0.0,0.0,0.0,4.05827940142e-08,3.10134892061e-05,-9.38966149277e-09,-0.002153,0.020744,0.075806,-0.013337,0.103464,0.093086
884,1090000000.0,0.0,0.000193328829475,3.5527136788e-15,1.0,0.0,0.0,0.0,-5.61437012436e-08,2.95543668472e-05,-9.32231625227e-09,-0.002153,0.020744,0.075806,-0.013337,0.103464,0.093086
885,1100000000.0,0.0,0.000193328829475,3.5527136788e-15,1.0,0.0,0.0,0.0,0.0,0.0,0.0,-0.002153,0.020744,0.075806,-0.013337,0.103464,0.093086
886,1110000000.0,0.0,0.000192298903126,0.0,1.0,0.0,0.0,0.0,-2.98606916971e-10,6.32286037217e-06,4.45067649403e-10,-0.002153,0.020744,0.075806,-0.013337,0.103464,0.093086
887,1120000000.0,0.0,0.000192298903126,0.0,1.0,0.0,0.0,0.0,2.96208418904e-10,8.21113553684e-06,4.40117914336e-10,-0.002153,0.020744,0.075806,-0.013337,0.103464,0.093086
888,1130000000.0,0.0,0.000192298903126,0.0,1.0,0.0,0.0,0.0,-2.60187177359e-10,1.00517272585e-05,7.58742513264e-10,-0.002153,0.020744,0.075806,-0.013337,0.103464,0.093086
889,1140000000.0,0.0,0.000192298903126,0.0,1.0,0.0,0.0,0.0,-3.71973172264e-08,1.13582609629e-05,1.56449075917e-08,-0.002153,0.020744,0.075806,-0.013337,0.103464,0.093086
890,1150000000.0,0.0,0.000192298903126,0.0,1.0,0.0,0.0,0.0,2.94175706017e-08,1.19400019685e-05,4.52936299579e-10,-0.002153,0.020744,0.075806,-0.013337,0.103464,0.093086
891,1160000000.0,0.0,0.000192298903126,0.0,1.0,0.0,0.0,0.0,4.18531342916e-08,1.24168391267e-05,-1.35796129896e-08,-0.002153,0.020744,0.075806,-0.013337,0.103464,0.093086
892,1170000000.0,0.0,0.000192298903126,0.0,1.0,0.0,0.0,0.0,-2.89254735719e-08,1.1930465007e-05,2.14857309722e-09,-0.002153,0.020744,0.075806,-0.013337,0.103464,0.093086
893,1180000000.0,0.0,0.000192298903126,0.0,1.0,0.0,0.0,0.0,3.34617098474e-08,1.21784205476e-05,-1.33841036032e-08,-0.002153,0.020744,0.075806,-0.013337,0.103464,0.093086
894,1190000000.0,0.0,0.000192298903126,0.0,1.0,0.0,0.0,0.0,-3.00245375229e-08,1.29413601826e-05,2.37959740801e-09,-0.002153,0.020744,0.075806,-0.013337,0.103464,0.093086
895,1200000000.0,0.0,0.000191268860355,-3.5527136788e-15,1.0,0.0,0.0,0.0,-4.23470467581e-08,1.36089320222e-05,1.64984275131e-08,-0.002153,0.020744,0.075806,-0.013337,0.103464,0.093086
896,1210000000.0,0.0,0.000191268860355,-3.5527136788e-15,1.0,0.0,0.0,0.0,2.82042993405e-08,1.35135651362e-05,1.02453101558e-09,-0.002153,0.020744,0.075806,-0.013337,0.103464,0.093086
897,1220000000.0,0.0,0.000191268860355,-3.5527136788e-15,1.0,0.0,0.0,0.0,4.00096045183e-09,1.28746032715e-05,1.68240665843e-09,-0.002153,0.020744,0.075806,-0.013337,0.103464,0.093086
898,1230000000.0,0.0,0.000191268860355,-3.5527136788e-15,1.0,0.0,0.0,0.0,7.42628292194e-10,1.21212005979e-05,1.75646075462e-09,-0.002153,0.020744,0.075806,-0.013337,0.103464,0.093086
899,1240000000.0,0.0,0.000191268860355,-3.5527136788e-15,1.0,0.0,0.0,0.0,3.72844120022e-08,1.16729734145e-05,-1.32437110167e-08,-0.002153,0.020744,0.075806,-0.013337,0.103464,0.093086
900,1250000000.0,0.0,0.000191268860355,-3.5527136788e-15,1.0,0.0,0.0,0.0,-2.95402138306e-08,1.17397303256e-05,2.47955989075e-09,-0.002153,0.020744,0.075806,-0.013337,0.103464,0.093086
901,1260000000.0,0.0,0.000191268860355,-3.5527136788e-15,1.0,0.0,0.0,0.0,-6.9909560807e-08,1.13964078992e-05,1.13549747383e-09,-0.002153,0.020744,0.075806,-0.013337,0.103464,0.093086
902,1270000000.0,0.0,0.000191268860355,-3.5527136788e-15,1.0,0.0,0.0,0.0,8.76168968489e-08,1.13773339763e-05,-1.24889822928e-08,-0.002153,0.020744,0.075806,-0.013337,0.103464,0.093086
903,1280000000.0,0.0,0.000191268860355,-3.5527136788e-15,1.0,0.0,0.0,0.0,1.51039820651e-08,1.00994111563e-05,-1.20849890095e-08,-0.002153,0.020744,0.075806,-0.013337,0.103464,0.093086
904,1290000000.0,0.0,0.000190200749785,0.0,1.0,0.0,0.0,0.0,-7.01569575767e-08,1.08051299321e-05,1.76764469728e-08,-0.002153,0.020744,0.075806,-0.013337,0.103464,0.093086
905,1300000000.0,0.0,0.000190200749785,0.0,1.0,0.0,0.0,0.0,2.45272566701e-08,9.76562478172e-06,1.6886678722e-09,-0.002153,0.020744,0.075806,-0.013337,0.103464,0.093086
906,1310000000.0,0.0,0.000190200749785,0.0,1.0,0.0,0.0,0.0,3.16038262227e-09,9.67979394773e-06,2.8465971802e-09,-0.002153,0.020744,0.075806,-0.013337,0.103464,0.093086
907,1320000000.0,0.0,0.000190200749785,0.0,1.0,0.0,0.0,0.0,4.55359250306e-10,9.48905926634e-06,2.91265411789e-09,-0.002153,0.020744,0.075806,-0.013337,0.103464,0.093086
908,1330000000.0,0.0,0.000190200749785,0.0,1.0,0.0,0.0,0.0,3.70452930554e-08,8.19206252345e-06,-1.15397966738e-08,-0.002153,0.020744,0.075806,-0.013337,0.103464,0.093086
909,1340000000.0,0.0,0.000190200749785,0.0,1.0,0.0,0.0,0.0,-9.40296231988e-08,8.15391558717e-06,3.18964099577e-09,-0.002153,0.020744,0.075806,-0.013337,0.103464,0.093086
910,1350000000.0,0.0,0.000190200749785,0.0,1.0,0.0,0.0,0.0,8.36348448274e-08,7.44819635656e-06,-1.09793099057e-08,-0.002153,0.020744,0.075806,-0.013337,0.103464,0.093086
911,1360000000.0,0.0,0.000190200749785,0.0,1.0,0.0,0.0,0.0,-5.96236162664e-08,7.59124759497e-06,1.90950313339e-08,-0.002153,0.020744,0.075806,-0.013337,0.103464,0.093086
912,1370000000.0,0.0,0.000190200749785,0.0,1.0,0.0,0.0,0.0,6.27692031685e-08,6.4277646743e-06,-1.15916369836e-08,-0.002153,0.020744,0.075806,-0.013337,0.103464,0.093086
913,1380000000.0,0.0,0.000190200749785,0.0,1.0,0.0,0.0,0.0,-6.27369800554e-08,6.43730163574e-06,1.94732994174e-08,-0.002153,0.020744,0.075806,-0.013337,0.103464,0.093086
914,1390000000.0,0.0,0.000190200749785,0.0,1.0,0.0,0.0,0.0,6.24889793244e-08,5.1403044381e-06,-1.1143053591e-08,-0.002153,0.020744,0.075806,-0.013337,0.103464,0.093086
915,1400000000.0,0.0,0.000190200749785,0.0,1.0,0.0,0.0,0.0,-2.5499529599e-08,5.45501688975e-06,5.12299358491e-09,-0.002153,0.020744,0.075806,-0.013337,0.103464,0.093086
916,1410000000.0,0.0,0.000190200749785,0.0,1.0,0.0,0.0,0.0,-3.49701623215e-09,6.15119915892e-06,4.45954562167e-09,-0.002153,0.020744,0.075806,-0.013337,0.103464,0.093086
917,1420000000.0,0.0,0.000190200749785,0.0,1.0,0.0,0.0,0.0,3.65746650743e-08,4.30107093052e-06,-1.00169978978e-08,-0.002153,0.020744,0.075806,-0.013337,0.103464,0.093086
918,1430000000.0,0.0,0.000190200749785,0.0,1.0,0.0,0.0,0.0,-2.89622210659e-08,4.47273259851e-06,5.50107648323e-09,-0.002153,0.020744,0.075806,-0.013337,0.103464,0.093086
919,1440000000.0,-7.1054273576e-15,0.000189170823433,0.0,1.0,0.0,0.0,0.0,-6.87762522489e-08,4.30107093052e-06,4.27382351731e-09,-0.002153,0.020744,0.075806,-0.013337,0.103464,0.093086
920,1450000000.0,-7.1054273576e-15,0.000189170823433,0.0,1.0,0.0,0.0,0.0,5.05843580356e-08,4.11033624914e-06,5.62096857948e-09,-0.002153,0.020744,0.075806,-0.013337,0.103464,0.093086
921,1460000000.0,-7.1054273576e-15,0.000189170823433,0.0,1.0,0.0,0.0,0.0,4.42766712183e-08,3.56674195245e-06,-9.15561315651e-09,-0.002153,0.020744,0.075806,-0.013337,0.103464,0.093086
922,1470000000.0,-7.1054273576e-15,0.000189170823433,0.0,1.0,0.0,0.0,0.0,-2.80576024636e-08,3.60488888873e-06,6.16915185603e-09,-0.002153,0.020744,0.075806,-0.013337,0.103464,0.093086
923,1480000000.0,-7.1054273576e-15,0.000189170823433,0.0,1.0,0.0,0.0,0.0,-3.06502698777e-08,3.72886643163e-06,-1.01456203438e-08,-0.002153,0.020744,0.075806,-0.013337,0.103464,0.093086
924,1490000000.0,-7.1054273576e-15,0.000189170823433,0.0,1.0,0.0,0.0,0.0,2.15707327555e-08,2.99453722619e-06,6.58276100296e-09,-0.002153,0.020744,0.075806,-0.013337,0.103464,0.093086
925,1500000000.0,-7.1054273576e-15,0.000189170823433,0.0,1.0,0.0,0.0,0.0,4.01674782324e-08,2.31742842516e-06,-9.05876440527e-09,-0.002153,0.020744,0.075806,-0.013337,0.103464,0.093086
926,1510000000.0,-7.1054273576e-15,0.000189170823433,0.0,1.0,0.0,0.0,0.0,-2.84354246816e-08,2.22206108447e-06,6.31315399957e-09,-0.002153,0.020744,0.075806,-0.013337,0.103464,0.093086
927,1520000000.0,-7.1054273576e-15,0.000189170823433,0.0,1.0,0.0,0.0,0.0,0.0,0.0,0.0,-0.002153,0.020744,0.075806,-0.013337,0.103464,0.093086
928,1530000000.0,-7.1054273576e-15,0.000189170823433,0.0,1.0,0.0,0.0,0.0,-9.33696106542e-11,2.86102277869e-07,-1.02379132949e-10,-0.002153,0.020744,0.075806,-0.013337,0.103464,0.093086
929,1540000000.0,-7.1054273576e-15,0.000189170823433,0.0,1.0,0.0,0.0,0.0,-1.1147042317e-10,5.72204555738e-07,-1.97199617746e-10,-0.002153,0.020744,0.075806,-0.013337,0.103464,0.093086
930,1550000000.0,-7.1054273576e-15,0.000189170823433,0.0,1.0,0.0,0.0,0.0,-1.18701715124e-10,8.58306862028e-07,-2.91696999888e-10,-0.002153,0.020744,0.075806,-0.013337,0.103464,0.093086
931,1560000000.0,-7.1054273576e-15,0.000189170823433,0.0,1.0,0.0,0.0,0.0,-1.24360313714e-10,1.14440911148e-06,-3.86168430566e-10,-0.002153,0.020744,0.075806,-0.013337,0.103464,0.093086
932,1570000000.0,-7.1054273576e-15,0.000189170823433,0.0,1.0,0.0,0.0,0.0,-1.29795063586e-10,1.43051147461e-06,-4.80636364042e-10,-0.002153,0.020744,0.075806,-0.013337,0.103464,0.093086
933,1580000000.0,-7.1054273576e-15,0.000189170823433,0.0,1.0,0.0,0.0,0.0,-1.35195563078e-10,1.71661372406e-06,-5.75103853428e-10,-0.002153,0.020744,0.075806,-0.013337,0.103464,0.093086
934,1590000000.0,-7.1054273576e-15,0.000189170823433,0.0,1.0,0.0,0.0,0.0,-1.40592065767e-10,2.0027159735e-06,-6.69571342815e-10,-0.002153,0.020744,0.075806,-0.013337,0.103464,0.093086
935,1600000000.0,-7.1054273576e-15,0.000189170823433,0.0,1.0,0.0,0.0,0.0,2.64779735915e-08,1.11579890927e-06,1.46890091202e-08,-0.002153,0.020744,0.075806,-0.013337,0.103464,0.093086
936,1610000000.0,-7.1054273576e-15,0.000189170823433,0.0,1.0,0.0,0.0,0.0,-2.30766445952e-08,1.05857850485e-06,-1.95491445254e-09,-0.002153,0.020744,0.075806,-0.013337,0.103464,0.093086
937,1620000000.0,-7.1054273576e-15,0.000189170823433,0.0,1.0,0.0,0.0,0.0,-4.63638905046e-09,1.30653381802e-06,-9.16067555145e-10,-0.002153,0.020744,0.075806,-0.013337,0.103464,0.093086
938,1630000000.0,-7.1054273576e-15,0.000189170823433,0.0,1.0,0.0,0.0,0.0,-2.04079020349e-09,1.55448913119e-06,-9.67648294825e-10,-0.002153,0.020744,0.075806,-0.013337,0.103464,0.093086
939,1640000000.0,-7.1054273576e-15,0.000189170823433,0.0,1.0,0.0,0.0,0.0,-1.20275012172e-09,1.81198117843e-06,-1.31344302101e-09,-0.002153,0.020744,0.075806,-0.013337,0.103464,0.093086
940,1650000000.0,-7.1054273576e-15,0.000189170823433,0.0,1.0,0.0,0.0,0.0,-1.11612774578e-09,2.06947311199e-06,-1.65181823775e-09,-0.002153,0.020744,0.075806,-0.013337,0.103464,0.093086
941,1660000000.0,-7.1054273576e-15,0.000189170823433,0.0,1.0,0.0,0.0,0.0,6.33557064589e-08,1.56402586526e-06,-1.11369513611e-09,-0.002153,0.020744,0.075806,-0.013337,0.103464,0.093086
942,1670000000.0,-7.1054273576e-15,0.000189170823433,0.0,1.0,0.0,0.0,0.0,1.14176463839e-08,1.77383424216e-06,-1.63302238398e-09,-0.002153,0.020744,0.075806,-0.013337,0.103464,0.093086
943,1680000000.0,-7.1054273576e-15,0.000189170823433,0.0,1.0,0.0,0.0,0.0,-3.32276890447e-08,2.41279599322e-06,-1.73787064739e-08,-0.002153,0.020744,0.075806,-0.013337,0.103464,0.093086
944,1690000000.0,-7.1054273576e-15,0.000189170823433,0.0,1.0,0.0,0.0,0.0,-4.9963047033e-09,1.7642973944e-06,1.42355700561e-08,-0.002153,0.020744,0.075806,-0.013337,0.103464,0.093086
945,1700000000.0,-7.1054273576e-15,0.000189170823433,0.0,1.0,0.0,0.0,0.0,-2.02862993071e-09,1.96456903723e-06,1.22017276283e-08,-0.002153,0.020744,0.075806,-0.013337,0.103464,0.093086
946,1710000000.0,-7.1054273576e-15,0.000189170823433,0.0,1.0,0.0,0.0,0.0,-6.52256204603e-08,1.39236442465e-06,1.15352349894e-08,-0.002153,0.020744,0.075806,-0.013337,0.103464,0.093086
947,1720000000.0,-7.1054273576e-15,0.000189170823433,0.0,1.0,0.0,0.0,0.0,-1.37467939254e-08,1.54495239713e-06,1.19821441658e-08,-0.002153,0.020744,0.075806,-0.013337,0.103464,0.093086
948,1730000000.0,-7.1054273576e-15,0.000189170823433,0.0,1.0,0.0,0.0,0.0,3.10173895457e-08,2.11715700971e-06,-2.80223044768e-09,-0.002153,0.020744,0.075806,-0.013337,0.103464,0.093086
949,1740000000.0,-7.1054273576e-15,0.000189170823433,0.0,1.0,0.0,0.0,0.0,2.92943469482e-09,7.82012932632e-07,-2.37712272089e-09,-0.002153,0.020744,0.075806,-0.013337,0.103464,0.093086
950,1750000000.0,-7.1054273576e-15,0.000189170823433,0.0,1.0,0.0,0.0,0.0,-1.20099818979e-09,8.96453855148e-07,-2.72261613254e-09,-0.002153,0.020744,0.075806,-0.013337,0.103464,0.093086
951,1760000000.0,-7.1054273576e-15,0.000189170823433,0.0,1.0,0.0,0.0,0.0,-1.83392778741e-09,1.01089472082e-06,-3.05056557792e-09,-0.002153,0.020744,0.075806,-0.013337,0.103464,0.093086
952,1770000000.0,-7.1054273576e-15,0.000189170823433,0.0,1.0,0.0,0.0,0.0,-1.96223459703e-09,1.12533564334e-06,-3.37237993087e-09,-0.002153,0.020744,0.075806,-0.013337,0.103464,0.093086
953,1780000000.0,-7.1054273576e-15,0.000189170823433,0.0,1.0,0.0,0.0,0.0,-2.01772798469e-09,1.23977656585e-06,-3.69319752558e-09,-0.002153,0.020744,0.075806,-0.013337,0.103464,0.093086
954,1790000000.0,-7.1054273576e-15,0.000189170823433,0.0,1.0,0.0,0.0,0.0,2.55512517811e-08,1.66893005371e-06,1.15077236629e-08,-0.002153,0.020744,0.075806,-0.013337,0.103464,0.093086
955,1800000000.0,-7.1054273576e-15,0.000189170823433,0.0,1.0,0.0,0.0,0.0,-2.37057111718e-08,1.47819514495e-06,-5.26355625752e-09,-0.002153,0.020744,0.075806,-0.013337,0.103464,0.093086
956,1810000000.0,-7.1054273576e-15,0.000189170823433,0.0,1.0,0.0,0.0,0.0,2.27270309239e-08,1.90734863281e-06,1.08615152428e-08,-0.002153,0.020744,0.075806,-0.013337,0.103464,0.093086
957,1820000000.0,-7.1054273576e-15,0.000189170823433,0.0,1.0,0.0,0.0,0.0,-2.37844464124e-08,1.71661372406e-06,-6.05819083788e-09,-0.002153,0.020744,0.075806,-0.013337,0.103464,0.093086
958,1830000000.0,-7.1054273576e-15,0.000189170823433,0.0,1.0,0.0,0.0,0.0,2.2715148873e-08,2.14576721191e-06,1.00852490803e-08,-0.002153,0.020744,0.075806,-0.013337,0.103464,0.093086
959,1840000000.0,-7.1054273576e-15,0.000189170823433,0.0,1.0,0.0,0.0,0.0,4.09214706565e-08,1.18255616144e-06,-6.23936191602e-09,-0.002153,0.020744,0.075806,-0.013337,0.103464,0.093086
960,1850000000.0,-7.1054273576e-15,0.000189170823433,0.0,1.0,0.0,0.0,0.0,8.22273893419e-09,1.24931329992e-06,-6.06054362251e-09,-0.002153,0.020744,0.075806,-0.013337,0.103464,0.093086
961,1860000000.0,-7.1054273576e-15,0.000189170823433,0.0,1.0,0.0,0.0,0.0,3.00831404232e-09,1.32560728616e-06,-6.34576879932e-09,-0.002153,0.020744,0.075806,-0.013337,0.103464,0.093086
962,1870000000.0,-7.1054273576e-15,0.000189170823433,0.0,1.0,0.0,0.0,0.0,1.77301040516e-09,1.39236442465e-06,-6.37784003388e-09,-0.002153,0.020744,0.075806,-0.013337,0.103464,0.093086
963,1880000000.0,-7.1054273576e-15,0.000189170823433,0.0,1.0,0.0,0.0,0.0,-3.55627385318e-08,1.88827505099e-06,-2.19890559094e-08,-0.002153,0.020744,0.075806,-0.013337,0.103464,0.093086
964,1890000000.0,-7.1054273576e-15,0.000189170823433,0.0,1.0,0.0,0.0,0.0,3.04902094683e-08,1.54495239713e-06,-5.39413358425e-09,-0.002153,0.020744,0.075806,-0.013337,0.103464,0.093086
965,1900000000.0,-7.1054273576e-15,0.000189170823433,0.0,1.0,0.0,0.0,0.0,-2.27912320128e-08,1.93595883502e-06,8.54372927961e-09,-0.002153,0.020744,0.075806,-0.013337,0.103464,0.093086
966,1910000000.0,-7.1054273576e-15,0.000189170823433,0.0,1.0,0.0,0.0,0.0,-1.42071616693e-08,1.26838676806e-06,7.54720375085e-09,-0.002153,0.020744,0.075806,-0.013337,0.103464,0.093086
967,1920000000.0,-7.1054273576e-15,0.000189170823433,0.0,1.0,0.0,0.0,0.0,-4.2911549869e-09,1.32560728616e-06,7.56369455957e-09,-0.002153,0.020744,0.075806,-0.013337,0.103464,0.093086
968,1930000000.0,-7.1054273576e-15,0.000189170823433,0.0,1.0,0.0,0.0,0.0,-2.49409759512e-09,1.38282769058e-06,7.2876455981e-09,-0.002153,0.020744,0.075806,-0.013337,0.103464,0.093086
969,1940000000.0,-7.1054273576e-15,0.000189170823433,0.0,1.0,0.0,0.0,0.0,0.0,0.0,0.0,-0.002153,0.020744,0.075806,-0.013337,0.103464,0.093086
970,1950000000.0,-7.1054273576e-15,0.000189170823433,0.0,1.0,0.0,0.0,0.0,-1.58230772929e-09,4.76837129781e-08,-3.1705663095e-10,-0.002153,0.020744,0.075806,-0.013337,0.103464,0.093086
971,1960000000.0,-7.1054273576e-15,0.000189170823433,0.0,1.0,0.0,0.0,0.0,-1.89977100717e-09,1.04904174236e-07,-6.01834526659e-10,-0.002153,0.020744,0.075806,-0.013337,0.103464,0.093086
972,1970000000.0,-7.1054273576e-15,0.000189170823433,0.0,1.0,0.0,0.0,0.0,-2.03469685545e-09,1.62124635494e-07,-8.83736250845e-10,-0.002153,0.020744,0.075806,-0.013337,0.103464,0.093086
973,1980000000.0,-7.1054273576e-15,0.000189170823433,0.0,1.0,0.0,0.0,0.0,-1.65792435336e-09,2.09808348473e-07,-1.40557154804e-09,-0.002153,0.020744,0.075806,-0.013337,0.103464,0.093086
974,1990000000.0,-7.1054273576e-15,0.000189170823433,0.0,1.0,0.0,0.0,0.0,-1.66278035785e-09,2.5749204724e-07,-1.91444504694e-09,-0.002153,0.020744,0.075806,-0.013337,0.103464,0.093086
975,2000000000.0,-7.1054273576e-15,0.000189170823433,0.0,1.0,0.0,0.0,0.0,-1.72268044274e-09,3.05175774429e-07,-2.42357556246e-09,-0.002153,0.020744,0.075806,-0.013337,0.103464,0.093086
976,2010000000.0,-7.1054273576e-15,0.000189170823433,0.0,1.0,0.0,0.0,0.0,-1.19820453559e-09,3.43322739127e-07,-2.68428790307e-09,-0.002153,0.020744,0.075806,-0.013337,0.103464,0.093086
977,2020000000.0,-7.1054273576e-15,0.000189170823433,0.0,1.0,0.0,0.0,0.0,-6.46827647e-10,3.81469703825e-07,-2.71803934915e-09,-0.002153,0.020744,0.075806,-0.013337,0.103464,0.093086
978,2030000000.0,-7.1054273576e-15,0.000189170823433,0.0,1.0,0.0,0.0,0.0,-5.66894475806e-10,4.19616696945e-07,-2.77329914589e-09,-0.002153,0.020744,0.075806,-0.013337,0.103464,0.093086
979,2040000000.0,-2.58240660855e-07,0.000188102712851,2.47941874321e-05,0.999999999998,1.68088483465e-07,-1.97136324459e-06,8.34465312349e-07,4.56249690615e-05,8.48770127959e-07,0.00272794719785,-0.002153,0.020744,0.075806,-0.013337,0.103464,0.093086
980,2050000000.0,5.46705258841e-06,0.000211791950278,0.00277158482024,0.999999999398,1.56220618497e-07,-2.84729910779e-06,-3.45706921281e-05,-0.00282403384335,-8.10623134867e-07,0.27166941762,-0.002153,0.020744,0.075806,-0.013337,0.103464,0.093086
981,2060000000.0,3.18925694387e-06,0.000250205979679,0.00811814928917,0.999999995787,1.41876719262e-07,-3.28787259213e-06,-9.17315461068e-05,-0.00552849471569,-7.43865939568e-07,0.52996712923,-0.002153,0.020744,0.075806,-0.013337,0.103464,0.093086
982,2070000000.0,-1.60850521524e-06,0.000298271188509,0.0159043187279,0.999999986687,1.31034417261e-07,-3.55471711166e-06,-0.000163137909843,-0.00805448181927,-3.91006466316e-07,0.772594034672,-0.002153,0.020744,0.075806,-0.013337,0.103464,0.093086
983,2080000000.0,-1.93339684529e-06,0.000350608839653,0.0258249736358,0.999999970871,1.22371277111e-07,-3.71961220696e-06,-0.000241339185696,-0.0102719319984,-3.71932969773e-06,0.985370516777,-0.002153,0.020744,0.075806,-0.013337,0.103464,0.093086
984,2090000000.0,-3.60671401012e-06,0.00040485383942,0.0377064752423,0.999999948175,1.14789019234e-07,-3.81220581963e-06,-0.000321924675078,-0.012316653505,-2.4509429295e-06,1.18167626858,-0.002153,0.020744,0.075806,-0.013337,0.103464,0.093086
985,2100000000.0,-2.15938106862e-06,0.000452728243541,0.0507534625752,0.999999922708,1.1166117736e-07,-3.88295267478e-06,-0.000393152201238,-0.0135320173576,-1.51634208156e-06,1.29847347736,-0.002153,0.020744,0.075806,-0.013337,0.103464,0.093086
986,2110000000.0,-1.80223301527e-06,0.00050300592557,0.0657365024192,0.999999890501,1.06714386328e-07,-3.89284115848e-06,-0.000467956007073,-0.01554628741,-1.70707698999e-06,1.49209237099,-0.002153,0.020744,0.075806,-0.013337,0.103464,0.093086
987,2120000000.0,1.63631020911e-06,0.000550308148373,0.0822550732852,0.999999854986,1.13654714695e-07,-3.90533557448e-06,-0.000538527913952,-0.0171482283622,-1.80244444481e-06,1.64596176147,-0.002153,0.020744,0.075806,-0.013337,0.103464,0.093086
988,2130000000.0,3.12953915937e-06,0.000593032804314,0.100059246595,0.999999818714,1.15113281629e-07,-3.92250815212e-06,-0.000602126056455,-0.018490113318,-3.1757354011e-06,1.77506577969,-0.002153,0.020744,0.075806,-0.013337,0.103464,0.093086
989,2140000000.0,2.79664185854e-06,0.000631751958277,0.119137578877,0.999999782309,1.13348083475e-07,-3.93187587039e-06,-0.000659823338959,-0.0198208075017,-4.95910626386e-06,1.9029468298,-0.002153,0.020744,0.075806,-0.013337,0.103464,0.093086
990,2150000000.0,2.80239260064e-06,0.000662383972664,0.138915949602,0.999999751393,1.14817300112e-07,-3.94488538286e-06,-0.000705122879306,-0.0205647982657,-6.91413879439e-06,1.97408032417,-0.002153,0.020744,0.075806,-0.013337,0.103464,0.093086
991,2160000000.0,5.73014678906e-06,0.000690307584588,0.159878878505,0.999999721147,1.15789064559e-07,-3.91108090037e-06,-0.000746786515148,-0.0218027159572,-7.20977777791e-06,2.09287786484,-0.002153,0.020744,0.075806,-0.013337,0.103464,0.093086
992,2170000000.0,5.51975799823e-06,0.000711860600859,0.181509382953,0.999999696687,1.14147743258e-07,-3.67805666479e-06,-0.000778853800184,-0.0225001312792,-5.59806812839e-06,2.16004610062,-0.002153,0.020744,0.075806,-0.013337,0.103464,0.093086
993,2180000000.0,2.8868285753e-06,0.000730476342135,0.204105032923,0.999999674763,1.1999941868e-07,-3.79041629817e-06,-0.000806510290258,-0.0235088076442,-5.19752484296e-06,2.25711035728,-0.002153,0.020744,0.075806,-0.013337,0.103464,0.093086
994,2190000000.0,1.42686322135e-06,0.000744171091352,0.227320617038,0.999999658162,1.23180070477e-07,-4.25179255786e-06,-0.000826835482038,-0.0241631790996,-4.74929811434e-06,2.31980991364,-0.002153,0.020744,0.075806,-0.013337,0.103464,0.093086
995,2200000000.0,-5.88364102327e-07,0.000754890381359,0.251322065629,0.999999644929,1.1949061629e-07,-3.95530681813e-06,-0.000842690322633,-0.0249882806092,-4.50134257379e-06,2.39856958389,-0.002153,0.020744,0.075806,-0.013337,0.103464,0.093086
996,2210000000.0,-1.2319806757e-06,0.000762176467099,0.275924375912,0.999999635884,1.23952861641e-07,-3.19849633396e-06,-0.000853359542969,-0.0256146546453,-3.72886643185e-06,2.4591357708,-0.002153,0.020744,0.075806,-0.013337,0.103464,0.093086
997,2220000000.0,-1.21911454443e-06,0.000766830402423,0.301196208715,0.999999629959,1.28543268141e-07,-3.40187897963e-06,-0.000860273681345,-0.026314266026,-2.65121457255e-06,2.52643322945,-0.002153,0.020744,0.075806,-0.013337,0.103464,0.093086
998,2230000000.0,-2.93400006512e-06,0.000768661499027,0.327000202653,0.999999627594,1.38884893253e-07,-3.88874682566e-06,-0.000863015513799,-0.0268797818571,-2.41279599367e-06,2.58015775681,-0.002153,0.020744,0.075806,-0.013337,0.103464,0.093086
999,2240000000.0,-3.43619218768e-06,0.000768661499023,0.353420316246,0.999999627594,1.38884893253e-07,-3.88874682566e-06,-0.000863015513799,-0.0275248475373,-1.34468075474e-06,2.64180207253,-0.002153,0.020744,0.075806,-0.013337,0.103464,0.093086
1000,2250000000.0,-5.0106019529e-06,0.000766410725191,0.380309651884,0.999999630471,1.27734848698e-07,-3.44140946684e-06,-0.000859677656229,-0.028015749529,-1.50680534738e-06,2.68909478188,-0.002153,0.020744,0.075806,-0.013337,0.103464,0.093086
1001,2260000000.0,-4.83597231948e-06,0.000762901268899,0.407763611556,0.999999635018,1.26792569333e-07,-3.39407455574e-06,-0.000854372857156,-0.0286040809005,-1.24931330037e-06,2.74561357498,-0.002153,0.020744,0.075806,-0.013337,0.103464,0.093086
1002,2270000000.0,-5.25680833618e-06,0.000757560716011,0.435641019388,0.999999641759,1.34480088565e-07,-3.40760397671e-06,-0.000846445404451,-0.0290482733399,-1.55448913142e-06,2.78832197189,-0.002153,0.020744,0.075806,-0.013337,0.103464,0.093086
1003,2280000000.0,-3.47171763337e-06,0.000751457177103,0.464039184616,0.999999649437,1.3667061366e-07,-3.35402940849e-06,-0.000837325901469,-0.0295918881893,-1.47819514518e-06,2.84040999413,-0.002153,0.020744,0.075806,-0.013337,0.103464,0.093086
1004,2290000000.0,-5.71915425951e-06,0.000744018470872,0.492824520616,0.999999658659,1.36357179714e-07,-3.28276743483e-06,-0.00082623945698,-0.0299971662462,-1.91688536755e-06,2.87943053246,-0.002153,0.020744,0.075806,-0.013337,0.103464,0.093086
1005,2300000000.0,-9.21759055217e-06,0.000736083951779,0.522096243868,0.999999668389,1.35103734478e-07,-3.21982696849e-06,-0.000814378121197,-0.0305035058409,-8.10623135283e-07,2.9278781414,-0.002153,0.020744,0.075806,-0.013337,0.103464,0.093086
1006,2310000000.0,-8.82160343707e-06,0.000727119389921,0.551726608674,0.999999679173,1.32667554276e-07,-3.14960331715e-06,-0.000801026689936,-0.0308805909008,-7.91549667145e-07,2.96390104294,-0.002153,0.020744,0.075806,-0.013337,0.103464,0.093086
1007,2320000000.0,-9.319051955e-06,0.000718002323985,0.581809030318,0.999999689967,1.2564237073e-07,-3.0783357855e-06,-0.000787436835483,-0.0313540287316,-3.05175774873e-07,3.00933432579,-0.002153,0.020744,0.075806,-0.013337,0.103464,0.093086
1008,2330000000.0,-9.5180561317e-06,0.000708122155629,0.61222907409,0.999999701359,1.18842949037e-07,-3.00758864796e-06,-0.000772833731614,-0.0317037254572,-1.01089472127e-06,3.04293084145,-0.002153,0.020744,0.075806,-0.013337,0.103464,0.093086
1009,2340000000.0,-1.03522552735e-05,0.00069828028791,0.643076380513,0.999999712584,1.23959443377e-07,-2.93997161965e-06,-0.000758170940504,-0.032151479274,-3.91006466538e-07,3.08585596085,-0.002153,0.020744,0.075806,-0.013337,0.103464,0.093086
1010,2350000000.0,-6.85500835829e-06,0.000687942490909,0.674240369096,0.999999724081,1.25693441211e-07,-2.86506976666e-06,-0.000742852567068,-0.0324813723564,-4.00543201051e-07,3.11748504639,-0.002153,0.020744,0.075806,-0.013337,0.103464,0.093086
1011,2360000000.0,-7.60880011796e-06,0.000677909818481,0.705812508148,0.9999997353,1.32135094144e-07,-2.79849365764e-06,-0.000727593815467,-0.0329048596323,2.6512145721e-06,3.15831875801,-0.002153,0.020744,0.075806,-0.013337,0.103464,0.093086
1012,2370000000.0,-7.66685418796e-06,0.000667343148962,0.737684124425,0.999999746498,1.35262169076e-07,-2.73191494615e-06,-0.000712037018605,-0.0332179553807,2.35557558859e-06,3.18835353851,-0.002153,0.020744,0.075806,-0.013337,0.103464,0.093086
1013,2380000000.0,-7.98267453916e-06,0.000657157856036,0.769946765693,0.999999757246,1.37089838481e-07,-2.66585541314e-06,-0.000696778201661,-0.0336253084242,9.25064056467e-07,3.22743272781,-0.002153,0.020744,0.075806,-0.013337,0.103464,0.093086
1014,2390000000.0,-7.48356922031e-06,0.000646705622785,0.802497440715,0.999999767925,1.35723841055e-07,-2.59875331415e-06,-0.000681281026499,-0.0339246466756,8.48770127515e-07,3.25617694855,-0.002153,0.020744,0.075806,-0.013337,0.103464,0.093086
1015,2400000000.0,-1.08978032429e-05,0.000636672950353,0.835423843038,0.999999777966,1.30000521403e-07,-2.53320886978e-06,-0.000666379811369,-0.0343163236976,9.25064056467e-07,3.29378628731,-0.002153,0.020744,0.075806,-0.013337,0.103464,0.093086
1016,2410000000.0,-9.58329786016e-06,0.000626487657421,0.868628782617,0.999999787979,1.30729503556e-07,-2.46142697669e-06,-0.000651180680998,-0.0346068553627,1.18255616055e-06,3.32148790359,-0.002153,0.020744,0.075806,-0.013337,0.103464,0.093086
1017,2420000000.0,-8.24845345448e-06,0.000616798410185,0.902198045756,0.999999797306,1.22315637452e-07,-2.38079680315e-06,-0.00063669675475,-0.0349878147244,1.2493132997e-06,3.35785579681,-0.002153,0.020744,0.075806,-0.013337,0.103464,0.093086
1018,2430000000.0,-9.69466238132e-06,0.000606956426058,0.936034323221,0.999999806423,1.23076308089e-07,-2.30849494959e-06,-0.000622212828344,-0.0352656580508,1.18255616055e-06,3.38472080231,-0.002153,0.020744,0.075806,-0.013337,0.103464,0.093086
1019,2440000000.0,-1.10212089695e-05,0.000597686739638,0.97022538802,0.999999814932,1.26732097538e-07,-2.23515461162e-06,-0.000608384549054,-0.0356342121959,1.54495239668e-06,3.42003631592,-0.002153,0.020744,0.075806,-0.013337,0.103464,0.093086
1020,2450000000.0,-1.12547245124e-05,0.000588340684768,1.00467778514,0.999999823285,1.27135246553e-07,-2.16233237482e-06,-0.000594496647627,-0.0359075590968,1.96456903656e-06,3.44623351097,-0.002153,0.020744,0.075806,-0.013337,0.103464,0.093086
1021,2460000000.0,-1.12692543652e-05,0.000579566927623,1.03947543337,0.99999983096,1.23698497945e-07,-2.08690725079e-06,-0.000581443259444,-0.0362668447196,1.10626217453e-06,3.4806535244,-0.002153,0.020744,0.075806,-0.013337,0.103464,0.093086
1022,2470000000.0,-1.01510238579e-05,0.000570754986249,1.07453059942,0.999999838498,1.240041404e-07,-2.01512537074e-06,-0.000568330249124,-0.0365336537361,9.05990588329e-07,3.50632476807,-0.002153,0.020744,0.075806,-0.013337,0.103464,0.093086
1023,2480000000.0,-8.73434898807e-06,0.000562515226193,1.10992338761,0.999999845401,1.21783618079e-07,-1.94802351022e-06,-0.000556051687054,-0.0368834361434,1.32560728572e-06,3.53998017311,-0.002153,0.020744,0.075806,-0.013337,0.103464,0.093086
1024,2490000000.0,-6.12531975008e-06,0.0005542372819,1.14556797189,0.999999852154,1.16189547761e-07,-1.88664149903e-06,-0.000543773124906,-0.0371451713145,1.47819514451e-06,3.56524467468,-0.002153,0.020744,0.075806,-0.013337,0.103464,0.093086
1025,2500000000.0,-6.93301319643e-06,0.00054672232363,1.18154060234,0.999999858279,1.11991971918e-07,-1.83254253949e-06,-0.000532388633056,-0.0374868512154,4.77790808806e-06,3.59824490547,-0.002153,0.020744,0.075806,-0.013337,0.103464,0.093086
1026,2510000000.0,-6.56821694633e-06,0.00053882598877,1.21776693613,0.999999864307,1.12238808136e-07,-1.77792583345e-06,-0.000520944551608,-0.0377471372485,4.38690176385e-06,3.62320756912,-0.002153,0.020744,0.075806,-0.013337,0.103464,0.093086
1027,2520000000.0,-5.74605898862e-06,0.000531921396032,1.25431563408,0.999999869747,1.2210447059e-07,-1.73163650191e-06,-0.00051039450796,-0.0380825027823,4.95910625897e-07,3.65564608574,-0.002153,0.020744,0.075806,-0.013337,0.103464,0.093086
1028,2530000000.0,-3.73154668409e-06,0.00052474974655,1.29111612813,0.999999875106,1.29478156363e-07,-1.69054719162e-06,-0.000499784907246,-0.0383396856487,3.36647030896e-06,3.68040180206,-0.002153,0.020744,0.075806,-0.013337,0.103464,0.093086
1029,2540000000.0,-5.01456905511e-06,0.000518150278364,1.32823322488,0.999999879915,1.33422532689e-07,-1.65517779543e-06,-0.000490069344377,-0.038671400398,3.00407395937e-06,3.71236753464,-0.002153,0.020744,0.075806,-0.013337,0.103464,0.093086
1030,2550000000.0,-5.04564306425e-06,0.000511550810188,1.36559639599,0.999999884657,1.3710638852e-07,-1.61252610964e-06,-0.00048029419194,-0.0389284901321,1.99317923877e-06,3.73701071739,-0.002153,0.020744,0.075806,-0.013337,0.103464,0.093086
1031,2560000000.0,-4.55976136493e-06,0.000505561823957,1.40327620953,0.999999888912,1.40866001308e-07,-1.57507598619e-06,-0.000471353487836,-0.0392571948469,1.57356259867e-06,3.7685790062,-0.002153,0.020744,0.075806,-0.013337,0.103464,0.093086
1032,2570000000.0,-6.63642168774e-06,0.000499534537088,1.4412020577,0.999999893114,1.40185317965e-07,-1.53606328723e-06,-0.000462353194179,-0.0395121313632,1.40190115805e-06,3.79307174683,-0.002153,0.020744,0.075806,-0.013337,0.103464,0.093086
1033,2580000000.0,-4.32204193856e-06,0.000494003295895,1.47943886629,0.999999896829,1.35422795089e-07,-1.49600857086e-06,-0.000454246970911,-0.0398370996118,2.18391414797e-06,3.82416892052,-0.002153,0.020744,0.075806,-0.013337,0.103464,0.093086
1034,2590000000.0,-4.55033953983e-06,0.000488471938297,1.51791980226,0.999999900558,1.34879158342e-07,-1.45959682851e-06,-0.000445961914015,-0.0400873161852,1.7261504579e-06,3.84835100174,-0.002153,0.020744,0.075806,-0.013337,0.103464,0.093086
1035,2600000000.0,-4.12262875926e-06,0.000483436509963,1.55670402995,0.999999903853,1.38760640866e-07,-1.42474759046e-06,-0.000438511337983,-0.0404058583081,9.53674315962e-07,3.87892699242,-0.002153,0.020744,0.075806,-0.013337,0.103464,0.093086
1036,2610000000.0,-2.3833756444e-06,0.000478324829604,1.59572861027,0.999999907144,1.38435381714e-07,-1.38989646414e-06,-0.000430941550376,-0.0406553596258,1.49726861243e-06,3.90292358398,-0.002153,0.020744,0.075806,-0.013337,0.103464,0.093086
1037,2620000000.0,-3.7827398387e-06,0.000473709078506,1.63505453532,0.999999910099,1.43274905662e-07,-1.36180955196e-06,-0.000424027410051,-0.0409677736461,1.23023983156e-06,3.93303418159,-0.002153,0.020744,0.075806,-0.013337,0.103464,0.093086
1038,2630000000.0,-3.85069701281e-06,0.000469016958956,1.67461890575,0.999999913032,1.43167178668e-07,-1.32799886621e-06,-0.000417053680189,-0.0412171110511,1.01089472015e-06,3.95690226555,-0.002153,0.020744,0.075806,-0.013337,0.103464,0.093086
1039,2640000000.0,-3.22291650434e-06,0.000464782700877,1.7144827534,0.999999915672,1.42929406477e-07,-1.29782925207e-06,-0.00041067597559,-0.0415263362229,1.23023983134e-06,3.98659658432,-0.002153,0.020744,0.075806,-0.013337,0.103464,0.093086
1040,2650000000.0,-1.26372896148e-06,0.000460433890112,1.75458504643,0.999999918271,1.39619470763e-07,-1.26869869527e-06,-0.000404298270979,-0.04177358374,1.42097473965e-06,4.01038312912,-0.002153,0.020744,0.075806,-0.013337,0.103464,0.093086
1041,2660000000.0,-2.36370009077e-06,0.000456581125032,1.79498105522,0.999999920615,1.4487622213e-07,-1.24477315089e-06,-0.000398457002102,-0.0420775674283,1.42097473965e-06,4.03970003128,-0.002153,0.020744,0.075806,-0.013337,0.103464,0.093086
1042,2670000000.0,-2.09253487071e-06,0.000452613807283,1.8356116949,0.999999922926,1.45233250703e-07,-1.21824487842e-06,-0.000392615765728,-0.0423254668713,1.61170953472e-06,4.06344461441,-0.002153,0.020744,0.075806,-0.013337,0.103464,0.093086
1043,2680000000.0,-4.86066364402e-06,0.00044902798254,1.87653414309,0.999999924971,1.41828751021e-07,-1.19119508152e-06,-0.000387370554635,-0.0426276922226,1.92642210006e-06,4.09241056442,-0.002153,0.020744,0.075806,-0.013337,0.103464,0.093086
1044,2690000000.0,-2.48289501315e-06,0.000445403973568,1.91769507639,0.999999927035,1.372210095e-07,-1.1579030616e-06,-0.000382006131973,-0.0428765006363,1.40190115783e-06,4.11615371704,-0.002153,0.020744,0.075806,-0.013337,0.103464,0.093086
1045,2700000000.0,-3.06496174574e-06,0.000442161574025,1.95914018922,0.999999928868,1.36943371365e-07,-1.13137472507e-06,-0.00037717817757,-0.0431725382805,1.18255616055e-06,4.1447429657,-0.002153,0.020744,0.075806,-0.013337,0.103464,0.093086
1046,2710000000.0,-2.31562142261e-06,0.000438842689615,2.00082374743,0.999999930721,1.33157021243e-07,-1.10484506893e-06,-0.000372230979093,-0.04342084378,1.70707698954e-06,4.16855955124,-0.002153,0.020744,0.075806,-0.013337,0.103464,0.093086
1047,2720000000.0,-6.91761421479e-07,0.000435905414637,2.04278961766,0.999999932354,1.33071004327e-07,-1.08143777106e-06,-0.00036782024888,-0.0437133200467,1.3923644242e-06,4.19669437408,-0.002153,0.020744,0.075806,-0.013337,0.103464,0.093086
1048,2730000000.0,-1.57084942032e-06,0.000432853703384,2.08499580078,0.999999933988,1.38230057789e-07,-1.0627137082e-06,-0.000363349896618,-0.04396199435,1.51634208034e-06,4.22068786621,-0.002153,0.020744,0.075806,-0.013337,0.103464,0.093086
1049,2740000000.0,2.31853131538e-06,0.000430145184509,2.12747670666,0.999999935452,1.4298364448e-07,-1.04242906712e-06,-0.000359296768559,-0.0442497730255,1.63078300286e-06,4.24827003479,-0.002153,0.020744,0.075806,-0.013337,0.103464,0.093086
1050,2750000000.0,-1.49255647841e-07,0.000427360530008,2.1702017002,0.999999936922,1.49612588318e-07,-1.03358831283e-06,-0.000355184050965,-0.0444997400045,2.08854680661e-06,4.27254915237,-0.002153,0.020744,0.075806,-0.013337,0.103464,0.093086
1051,2760000000.0,2.21102008879e-06,0.00042484281585,2.21319569477,0.999999938227,1.47280670937e-07,-1.01642204203e-06,-0.000351488557586,-0.0447818562388,1.18255616055e-06,4.29948806763,-0.002153,0.020744,0.075806,-0.013337,0.103464,0.093086
1052,2770000000.0,2.00875383882e-06,0.000422363285907,2.25643572397,0.999999939519,1.42722602736e-07,-1.00757739091e-06,-0.000347793064203,-0.0450360774994,1.43051147417e-06,4.32407569885,-0.002153,0.020744,0.075806,-0.013337,0.103464,0.093086
1053,2780000000.0,2.89951861276e-06,0.000420036260039,2.29993708548,0.999999940736,1.44568945315e-07,-9.98214854275e-07,-0.000344276404407,-0.0453100576997,3.1471250761e-07,4.35039138794,-0.002153,0.020744,0.075806,-0.013337,0.103464,0.093086
1054,2790000000.0,1.16814738504e-06,0.000417747418396,2.34369020337,0.9999999419,1.47473907364e-07,-9.90933277156e-07,-0.000340878923657,-0.0455686114728,1.56402586438e-06,4.37521314621,-0.002153,0.020744,0.075806,-0.013337,0.103464,0.093086
1055,2800000000.0,5.69536510397e-07,0.000415611197237,2.38770083908,0.999999942972,1.45131432427e-07,-9.78448457811e-07,-0.000337719898542,-0.045838303864,1.24931329948e-06,4.40101575851,-0.002153,0.020744,0.075806,-0.013337,0.103464,0.093086
1056,2810000000.0,-2.63134570133e-06,0.000413551344536,2.43196132391,0.999999944014,1.42489860466e-07,-9.64923264513e-07,-0.000334620462951,-0.0460983887315,1.0776519721e-06,4.42596721649,-0.002153,0.020744,0.075806,-0.013337,0.103464,0.093086
1057,2820000000.0,-8.4524783972e-07,0.000411567627449,2.47647555181,0.999999944987,1.41428085576e-07,-9.43076259197e-07,-0.000331699828446,-0.0463654920459,1.19209289462e-06,4.45139503479,-0.002153,0.020744,0.075806,-0.013337,0.103464,0.093086
1058,2830000000.0,-5.4560470204e-06,0.000409660278823,2.52123768186,0.999999945932,1.45670655372e-07,-9.27472795287e-07,-0.000328838815967,-0.0466244369745,1.61170953472e-06,4.47638273239,-0.002153,0.020744,0.075806,-0.013337,0.103464,0.093086
1059,2840000000.0,-5.07986614906e-06,0.000407829298634,2.56625355497,0.99999994683,1.43037790723e-07,-8.98343220035e-07,-0.000326096982547,-0.046890206635,1.17301942648e-06,4.50155735016,-0.002153,0.020744,0.075806,-0.013337,0.103464,0.093086
1060,2850000000.0,-3.49146624501e-06,0.000406074454073,2.61151931693,0.999999947643,1.40364875667e-07,-8.70774125084e-07,-0.000323593604759,-0.0471500046551,6.96182211435e-07,4.5265173912,-0.002153,0.020744,0.075806,-0.013337,0.103464,0.093086
1061,2860000000.0,-7.10711972829e-07,0.000404395977963,2.65703687499,0.99999994845,1.38315176312e-07,-8.49447026496e-07,-0.000321090194458,-0.0474092885852,1.66893005282e-06,4.55152416229,-0.002153,0.020744,0.075806,-0.013337,0.103464,0.093086
1062,2870000000.0,-4.92499715676e-07,0.000402793870304,2.70280046767,0.999999949232,1.42058555586e-07,-8.37484465888e-07,-0.000318646406185,-0.0476663969457,1.36375422155e-06,4.57642364502,-0.002153,0.020744,0.075806,-0.013337,0.103464,0.093086
1063,2880000000.0,9.37931588396e-07,0.000401229830455,2.74881394921,0.999999949951,1.38090496815e-07,-8.24999324689e-07,-0.000316381419006,-0.0479253567755,1.34468075386e-06,4.60131406784,-0.002153,0.020744,0.075806,-0.013337,0.103464,0.093086
1064,2890000000.0,-2.1404380135e-07,0.000399780226868,2.79507537262,0.999999950665,1.37419670976e-07,-8.15115980213e-07,-0.000314116464331,-0.0481837317348,6.67572009228e-07,4.62614440918,-0.002153,0.020744,0.075806,-0.013337,0.103464,0.093086
1065,2900000000.0,-1.33935479596e-07,0.00039836880751,2.84158477763,0.999999951318,1.36034647324e-07,-7.99510805671e-07,-0.000312030278237,-0.0484429784119,1.11579890838e-06,4.65094661713,-0.002153,0.020744,0.075806,-0.013337,0.103464,0.093086
1066,2910000000.0,1.13852719608e-06,0.000396995455954,2.88834597873,0.999999951949,1.38872664979e-07,-7.85467399955e-07,-0.000310003746683,-0.0487009845674,1.14440911059e-06,4.67570781708,-0.002153,0.020744,0.075806,-0.013337,0.103464,0.093086
1067,2920000000.0,-1.11822807014e-07,0.000395698472854,2.93534939998,0.999999952538,1.37688745017e-07,-7.71942908706e-07,-0.000308096394186,-0.0489579848945,1.15394584466e-06,4.70043897629,-0.002153,0.020744,0.075806,-0.013337,0.103464,0.093086
1068,2930000000.0,-1.4995377029e-07,0.000394477858208,2.98260271007,0.999999953106,1.40398654647e-07,-7.57899473902e-07,-0.000306248631211,-0.0492160469294,1.34468075341e-06,4.72513771057,-0.002153,0.020744,0.075806,-0.013337,0.103464,0.093086
1069,2940000000.0,1.08372829288e-06,0.000393295194957,3.03010018728,0.999999953652,1.38538263639e-07,-7.44374794581e-07,-0.000304460490274,-0.0494731068611,1.53541566217e-06,4.74980783463,-0.002153,0.020744,0.075806,-0.013337,0.103464,0.093086
1070,2950000000.0,-2.64996316446e-07,0.00039215083234,3.07784560636,0.999999954158,1.38218515244e-07,-7.31370753293e-07,-0.000302791560899,-0.0497290641069,1.19209289462e-06,4.77445030212,-0.002153,0.020744,0.075806,-0.013337,0.103464,0.093086
1071,2960000000.0,-3.81637228486e-07,0.000391082721766,3.12583900705,0.999999954644,1.36147354002e-07,-7.17846044995e-07,-0.000301182253561,-0.0499862506986,1.85966484834e-06,4.79906702042,-0.002153,0.020744,0.075806,-0.013337,0.103464,0.093086
1072,2970000000.0,-3.04095547676e-06,0.000390014611181,3.17407653511,0.999999955092,1.33924951684e-07,-7.03801165347e-07,-0.000299692125276,-0.0502424947917,1.17301942604e-06,4.82365894318,-0.002153,0.020744,0.075806,-0.013337,0.103464,0.093086
1073,2980000000.0,-4.44832537028e-06,0.000389060936865,3.22256013754,0.999999955538,1.30541728427e-07,-6.82473866143e-07,-0.000298202029502,-0.0505001023412,1.287460349e-06,4.84822750092,-0.002153,0.020744,0.075806,-0.013337,0.103464,0.093086
1074,2990000000.0,-4.58388223024e-06,0.000388107262552,3.27128790708,0.999999955963,1.26370438447e-07,-6.58545607546e-07,-0.000296771490745,-0.05075718835,9.72747783656e-07,4.87277412415,-0.002153,0.020744,0.075806,-0.013337,0.103464,0.093086
1075,3000000000.0,-3.48735541422e-06,0.000387191772461,3.32026365823,0.999999956334,1.22116146695e-07,-6.33577060871e-07,-0.000295519818097,-0.0510128289461,1.47819514407e-06,4.8972992897,-0.002153,0.020744,0.075806,-0.013337,0.103464,0.093086
1076,3010000000.0,-4.93350590602e-06,0.000386352534406,3.36948353675,0.999999956738,1.26157506997e-07,-6.12251991217e-07,-0.00029414890137,-0.051267452538,1.46865841e-06,4.9218044281,-0.002153,0.020744,0.075806,-0.013337,0.103464,0.093086
1077,3020000000.0,-1.2933530158e-06,0.000385513296354,3.41894762212,0.999999957088,1.29616342048e-07,-5.88846168437e-07,-0.000292956818243,-0.0515234395862,1.74522392538e-06,4.94629001617,-0.002153,0.020744,0.075806,-0.013337,0.103464,0.093086
1078,3030000000.0,-4.01036782449e-06,0.000384750310332,3.46865579515,0.999999957437,1.33790813373e-07,-5.62839803153e-07,-0.000291764702607,-0.0517790988088,1.48773187814e-06,4.97075653076,-0.002153,0.020744,0.075806,-0.013337,0.103464,0.093086
1079,3040000000.0,-1.68080858032e-06,0.000383987440724,3.51861198951,0.999999957749,1.40798766091e-07,-5.35793970968e-07,-0.000290691831043,-0.0520346611738,1.2111663632e-06,4.99520492554,-0.002153,0.020744,0.075806,-0.013337,0.103464,0.093086
1080,3050000000.0,-1.8740620078e-06,0.000383262638927,3.568810404,0.99999995806,1.41487955796e-07,-5.17068670991e-07,-0.00028961895948,-0.0522870346904,1.56402586438e-06,5.01963567734,-0.002153,0.020744,0.075806,-0.013337,0.103464,0.093086
1081,3060000000.0,-7.95502394624e-07,0.000311622628939,3.61925298561,0.999999958405,1.38052801579e-07,-4.99902608697e-07,-0.000288426843846,-0.0525419600308,0.00708477012813,5.04415225983,-0.002153,0.020744,0.075806,-0.013337,0.103464,0.093086
1082,3070000000.0,1.57473490958e-06,0.000252647325397,3.66993782709,0.999999958731,1.39955594725e-07,-4.86899284891e-07,-0.000287294382754,-0.0527923852205,0.00582375517115,5.06831884384,-0.002153,0.020744,0.075806,-0.013337,0.103464,0.093086
1083,3080000000.0,1.3427008696e-06,0.000204505864538,3.72087251769,0.999999958731,1.39955594725e-07,-4.86899284891e-07,-0.000287294382754,-0.0530484393239,0.00475081428885,5.09310340881,-0.002153,0.020744,0.075806,-0.013337,0.103464,0.093086
1084,3090000000.0,2.48180319318e-06,0.000165443401777,3.77204183917,0.999999959294,1.38849940545e-07,-4.86898694863e-07,-0.000285327408204,-0.0532948635519,0.00383887276985,5.116771698,-0.002153,0.020744,0.075806,-0.013337,0.103464,0.093086
1085,3100000000.0,4.81325987778e-06,0.000134277273901,3.82346295675,0.999999959294,1.38849940545e-07,-4.86898694863e-07,-0.000285327408204,-0.0535567551851,0.00306391716003,5.1419377327,-0.002153,0.020744,0.075806,-0.013337,0.103464,0.093086
1086,3110000000.0,9.06736865147e-07,0.000109481741667,3.87511671851,0.999999959786,1.42706632233e-07,-5.62321094688e-07,-0.000283598889277,-0.0537957884371,0.00241093640216,5.16509866714,-0.002153,0.020744,0.075806,-0.013337,0.103464,0.093086
1087,3120000000.0,-3.57311137122e-07,8.92257085106e-05,3.92688304747,0.999999960493,1.36834490516e-07,-1.97694927151e-07,-0.000281095478995,-0.0539185702801,0.00185784336645,5.1766037941,-0.002153,0.020744,0.075806,-0.013337,0.103464,0.093086
1088,3130000000.0,1.16016857987e-06,7.22121913022e-05,3.97874859291,0.999999961772,1.36690502583e-07,-3.89108941623e-07,-0.000276505915021,-0.0540209151804,0.0013947772095,5.18664360046,-0.002153,0.020744,0.075806,-0.013337,0.103464,0.093086
1089,3140000000.0,4.14715925956e-06,5.3176889196e-05,4.03010677139,0.99999996539,1.41676775478e-07,-4.82735172003e-07,-0.000263094890331,-0.0534988045692,0.00100684165955,5.13662528992,-0.002153,0.020744,0.075806,-0.013337,0.103464,0.093086
1090,3150000000.0,5.5847059599e-06,3.85284656659e-05,4.08161371501,0.999999968366,1.38768300184e-07,-5.30586477532e-07,-0.000251531579844,-0.0536515042186,0.00068258284591,5.15131139755,-0.002153,0.020744,0.075806,-0.013337,0.103464,0.093086
1091,3160000000.0,1.97567857185e-06,2.45284754818e-05,4.13287263728,0.999999971946,1.4041928359e-07,-5.1602067852e-07,-0.000236868849902,-0.0533966906369,0.000414009089581,5.12691259384,-0.002153,0.020744,0.075806,-0.013337,0.103464,0.093086
1092,3170000000.0,4.16808259729e-06,1.46866077557e-05,4.18430710558,0.999999974686,1.36002151374e-07,-5.04574754034e-07,-0.00022500752669,-0.0535789988935,0.00019308089395,5.14422464371,-0.002153,0.020744,0.075806,-0.013337,0.103464,0.093086
1093,3180000000.0,5.38664358629e-06,4.57756686245e-06,4.23546879808,0.99999997789,1.35403639467e-07,-5.0821367098e-07,-0.000210285174619,-0.0532935112715,1.1692046427e-05,5.11691379547,-0.002153,0.020744,0.075806,-0.013337,0.103464,0.093086
1094,3190000000.0,4.36049722907e-06,-1.41141936183e-06,4.28684600929,0.999999980124,1.35184121453e-07,-5.18094977531e-07,-0.000199377527611,-0.0535160750151,-0.000134220113979,5.13836574554,-0.002153,0.020744,0.075806,-0.013337,0.103464,0.093086
1095,3200000000.0,5.81743423567e-06,-7.74383078905e-06,4.33798481485,0.999999982719,1.34639657035e-07,-4.99887857552e-07,-0.000185906880662,-0.0532701611519,-0.000251808174653,5.11474561691,-0.002153,0.020744,0.075806,-0.013337,0.103464,0.093086
1096,3210000000.0,4.75155855639e-06,-1.07192900067e-05,4.38936584055,0.999999984384,1.39221742745e-07,-4.98847136654e-07,-0.000176727768813,-0.0535168349743,-0.000340299593518,5.13854122162,-0.002153,0.020744,0.075806,-0.013337,0.103464,0.093086
1097,3220000000.0,2.11589982513e-06,-1.41526106674e-05,4.44053130782,0.99999998638,1.39608906546e-07,-4.9936572577e-07,-0.000165045246549,-0.0532954856753,-0.000417299248512,5.11734628677,-0.002153,0.020744,0.075806,-0.013337,0.103464,0.093086
1098,3230000000.0,4.30830386478e-06,-1.4457735233e-05,4.49196577611,0.999999987516,1.38538832128e-07,-5.00404873705e-07,-0.000158011910373,-0.0535715334117,-0.000467681878946,5.14366865158,-0.002153,0.020744,0.075806,-0.013337,0.103464,0.093086
1099,3240000000.0,8.58193800468e-07,-1.56020978466e-05,4.54320944043,0.999999988986,1.37828200408e-07,-4.86879576544e-07,-0.000148415558,-0.053375929594,-0.000512695289218,5.1249704361,-0.002153,0.020744,0.075806,-0.013337,0.103464,0.093086
1100,3250000000.0,1.99777049659e-06,-1.38473696971e-05,4.59474499272,0.999999989725,1.40469149257e-07,-4.79597176917e-07,-0.000143349163907,-0.0536752678454,-0.000536031730008,5.1535525322,-0.002153,0.020744,0.075806,-0.013337,0.103464,0.093086
1101,3260000000.0,4.88543783916e-06,-1.31607521361e-05,4.64611270743,0.99999999079,1.42704928541e-07,-4.67632991608e-07,-0.000135719769869,-0.0535051561892,-0.000557708728594,5.13715648651,-0.002153,0.020744,0.075806,-0.013337,0.103464,0.093086
1102,3270000000.0,4.53516453547e-06,-9.88005195168e-06,4.69779130311,0.999999991214,1.45944804519e-07,-4.71794159906e-07,-0.000132560720213,-0.053823184222,-0.000562658300624,5.16783618927,-0.002153,0.020744,0.075806,-0.013337,0.103464,0.093086
1103,3280000000.0,5.69460587485e-06,-7.85826704686e-06,4.74932494816,0.999999991971,1.44718424744e-07,-4.57749139926e-07,-0.000126719467175,-0.053674492985,-0.000570306787268,5.15357303619,-0.002153,0.020744,0.075806,-0.013337,0.103464,0.093086
1104,3290000000.0,7.23195025643e-06,-3.39513644931e-06,4.80118858635,0.999999992144,1.40494995082e-07,-4.60349155629e-07,-0.000125348558529,-0.0540130734444,-0.000561780936551,5.18616771698,-0.002153,0.020744,0.075806,-0.013337,0.103464,0.093086
1105,3300000000.0,2.4513818957e-06,-3.81493009627e-07,4.8529262669,0.999999992658,1.44561558058e-07,-4.63990103339e-07,-0.000121176234922,-0.0538840852678,-0.000559043895919,5.17385959625,-0.002153,0.020744,0.075806,-0.013337,0.103464,0.093086
1106,3310000000.0,5.51877997168e-06,4.88280784694e-06,4.90500927802,0.999999992658,1.44561558058e-07,-4.63990103339e-07,-0.000121176234922,-0.0542437620461,-0.000543146103156,5.20818758011,-0.002153,0.020744,0.075806,-0.013337,0.103464,0.093086
1107,3320000000.0,5.86424435056e-06,8.58306884055e-06,4.95698735092,0.999999992972,1.40143698202e-07,-4.54626525315e-07,-0.000118553629195,-0.0541351437569,-0.000535078055692,5.19766426086,-0.002153,0.020744,0.075806,-0.013337,0.103464,0.093086
1108,3330000000.0,6.26977707441e-06,1.44576188141e-05,5.00932593289,0.999999992809,1.38078061929e-07,-4.54106320713e-07,-0.000119924537845,-0.0545081049204,-0.000513486855199,5.23355579376,-0.002153,0.020744,0.075806,-0.013337,0.103464,0.093086
1109,3340000000.0,3.81432344199e-06,1.85775570536e-05,5.06157292736,0.999999993001,1.37622504781e-07,-4.57747085514e-07,-0.000118315214187,-0.0544145517051,-0.000500001886395,5.22464323044,-0.002153,0.020744,0.075806,-0.013337,0.103464,0.093086
1110,3350000000.0,1.24015617331e-06,2.47573479975e-05,5.11419759611,0.999999992709,1.35451979077e-07,-4.68670280751e-07,-0.000120759002566,-0.0548037104309,-0.000476207729663,5.26193284988,-0.002153,0.020744,0.075806,-0.013337,0.103464,0.093086
1111,3360000000.0,3.27506592868e-06,2.91442265734e-05,5.16674601479,0.999999992709,1.35451979077e-07,-4.68670280751e-07,-0.000120759002566,-0.0547267645597,-0.000461702322355,5.25447940826,-0.002153,0.020744,0.075806,-0.013337,0.103464,0.093086
1112,3370000000.0,1.27744834799e-06,3.55530064553e-05,5.21968160423,0.999999992388,1.35329233486e-07,-4.55666904542e-07,-0.000123381608298,-0.0551271885633,-0.00043724058196,5.29301357269,-0.002153,0.020744,0.075806,-0.013337,0.103464,0.093086
1113,3380000000.0,3.76971981098e-06,4.00543212891e-05,5.27255238707,0.999999992388,1.35329233486e-07,-4.55666904542e-07,-0.000123381608298,-0.0550636388361,-0.0004214286746,5.28686571121,-0.002153,0.020744,0.075806,-0.013337,0.103464,0.093086
1114,3390000000.0,5.90490164143e-06,4.64629847521e-05,5.32582373112,0.999999991872,1.35879684726e-07,-4.75953327361e-07,-0.000127494326113,-0.0554751604795,-0.000396385177738,5.32650089264,-0.002153,0.020744,0.075806,-0.013337,0.103464,0.093086
1115,3400000000.0,8.57642944396e-06,5.10024838185e-05,5.37904357956,0.999999991872,1.35879684726e-07,-4.75953327361e-07,-0.000127494326113,-0.0554225258529,-0.00038183212746,5.32152462006,-0.002153,0.020744,0.075806,-0.013337,0.103464,0.093086
1116,3410000000.0,6.99691859296e-06,5.7411147278e-05,5.43267157847,0.99999999119,1.44416180681e-07,-4.94680523211e-07,-0.000132739537562,-0.0558435842395,-0.000357370357961,5.36213064194,-0.002153,0.020744,0.075806,-0.013337,0.103464,0.093086
1117,3420000000.0,5.85443039824e-06,6.1836210083e-05,5.48625761798,0.999999991023,1.44664957291e-07,-5.12365790573e-07,-0.000133991234639,-0.0558030791581,-0.000342874525814,5.35819864273,-0.002153,0.020744,0.075806,-0.013337,0.103464,0.093086
1118,3430000000.0,4.19593523304e-06,6.81304372812e-05,5.54025947667,0.999999990364,1.41221361938e-07,-5.35772698707e-07,-0.000138819205602,-0.0562351793051,-0.000319089886035,5.39965438843,-0.002153,0.020744,0.075806,-0.013337,0.103464,0.093086
1119,3440000000.0,2.85527472954e-06,7.24028795958e-05,5.59423081944,0.999999990148,1.37079210205e-07,-5.35772335608e-07,-0.000140368923474,-0.0562046095729,-0.000305919646054,5.39665699005,-0.002153,0.020744,0.075806,-0.013337,0.103464,0.093086
1120,3450000000.0,4.71377428823e-06,7.85064184967e-05,5.64862755734,0.999999989415,1.3565011342e-07,-5.47736247802e-07,-0.000145494923352,-0.0566448122263,-0.000284452427878,5.43885040283,-0.002153,0.020744,0.075806,-0.013337,0.103464,0.093086
1121,3460000000.0,3.03588880968e-06,8.26263567397e-05,5.70299755409,0.999999989154,1.33872963604e-07,-5.58139200801e-07,-0.000147283064355,-0.0566226653755,-0.000272436125671,5.43668556213,-0.002153,0.020744,0.075806,-0.013337,0.103464,0.093086
1122,3470000000.0,4.49756940668e-06,8.84628389031e-05,5.7577986677,0.999999988367,1.36160080433e-07,-5.71143966455e-07,-0.000152528275794,-0.0570695251226,-0.000252313620877,5.47952127457,-0.002153,0.020744,0.075806,-0.013337,0.103464,0.093086
1123,3480000000.0,6.11816732032e-06,9.23919724301e-05,5.81258452335,0.999999988065,1.34413027764e-07,-5.66982774619e-07,-0.000154495234148,-0.0570539832115,-0.000241384506809,5.47809505463,-0.002153,0.020744,0.075806,-0.013337,0.103464,0.093086
1124,3490000000.0,7.00424693889e-06,9.79995820671e-05,5.86780717788,0.999999987232,1.3800180132e-07,-5.8206837017e-07,-0.000159800035108,-0.0575046092272,-0.000223064416788,5.521484375,-0.002153,0.020744,0.075806,-0.013337,0.103464,0.093086
1125,3500000000.0,8.00951455204e-06,0.000101661658846,5.92301838894,0.999999986906,1.42212216558e-07,-6.02355127166e-07,-0.000161826599237,-0.0574960187078,-0.000214214320296,5.52071475983,-0.002153,0.020744,0.075806,-0.013337,0.103464,0.093086
1126,3510000000.0,8.22066986217e-06,0.000107002211731,5.97867212061,0.999999986023,1.47268392425e-07,-6.3200520567e-07,-0.000167191022226,-0.05795173347,-0.000195894230274,5.56456947327,-0.002153,0.020744,0.075806,-0.013337,0.103464,0.093086
1127,3520000000.0,1.61203999056e-05,0.000110435415991,6.03432021,0.999999985682,1.48088942609e-07,-6.35646682678e-07,-0.000169217570102,-0.057949218899,-0.000188732141397,5.56437492371,-0.002153,0.020744,0.075806,-0.013337,0.103464,0.093086
1128,3530000000.0,1.55573075489e-05,0.000115509028543,6.09041455504,0.999999984781,1.52503635553e-07,-6.77780266745e-07,-0.000174462781515,-0.0584045127034,-0.000172777174158,5.6086230278,-0.002153,0.020744,0.075806,-0.013337,0.103464,0.093086
1129,3540000000.0,1.88087055975e-05,0.000118713360273,6.14650893981,0.999999984436,1.56923619932e-07,-7.26675316642e-07,-0.000176429739851,-0.0584076717496,-0.000166959755007,5.60893964767,-0.002153,0.020744,0.075806,-0.013337,0.103464,0.093086
1130,3550000000.0,2.12063973137e-05,0.000123557983894,6.20305156692,0.999999983497,1.59960610979e-07,-7.89094524389e-07,-0.000181674951254,-0.058868650347,-0.000150709151058,5.65351009369,-0.002153,0.020744,0.075806,-0.013337,0.103464,0.093086
1131,3560000000.0,2.3564359708e-05,0.000126495375291,6.25959800853,0.999999983148,1.61058776649e-07,-8.14062164123e-07,-0.000183582287555,-0.0588774010539,-0.000146245947691,5.6542725563,-0.002153,0.020744,0.075806,-0.013337,0.103464,0.093086
1132,3570000000.0,2.50090217762e-05,0.000131034874357,6.31659841422,0.999999982205,1.61055950743e-07,-8.66077839612e-07,-0.000188648681605,-0.0593421645463,-0.000131778710057,5.69911050797,-0.002153,0.020744,0.075806,-0.013337,0.103464,0.093086
1133,3580000000.0,2.63940898577e-05,0.000133705092594,6.37360454164,0.999999981866,1.63398581332e-07,-9.31097150658e-07,-0.000190436822584,-0.0593536011875,-0.000127763749333,5.70027160645,-0.002153,0.020744,0.075806,-0.013337,0.103464,0.093086
1134,3590000000.0,2.68459929558e-05,0.000137939467091,6.4310665404,0.999999980924,1.59758641205e-07,-1.00079715076e-06,-0.000195324415533,-0.0598209574819,-0.000114641188703,5.74532175064,-0.002153,0.020744,0.075806,-0.013337,0.103464,0.093086
1135,3600000000.0,3.10130630936e-05,0.000140380812809,6.48853811511,0.999999980596,1.59103763553e-07,-1.03304650195e-06,-0.000196993344951,-0.0598364621401,-0.000112247464132,5.74683094025,-0.002153,0.020744,0.075806,-0.013337,0.103464,0.093086
1136,3610000000.0,3.04324778853e-05,0.000144348130558,6.54646552142,0.999999979658,1.60195459675e-07,-1.097545897e-06,-0.000201702104286,-0.060304004699,-0.000100402830868,5.79205131531,-0.002153,0.020744,0.075806,-0.013337,0.103464,0.093086
1137,3620000000.0,3.35074657158e-05,0.000146560603753,6.60440822541,0.999999979332,1.60862925203e-07,-1.17556858226e-06,-0.000203311427909,-0.060323022306,-9.86671439032e-05,5.79387140274,-0.002153,0.020744,0.075806,-0.013337,0.103464,0.093086
1138,3630000000.0,3.56294238983e-05,0.000150299048983,6.66280870799,0.9999999784,1.61906575591e-07,-1.25307166848e-06,-0.000207841386142,-0.0607939809561,-8.74996185312e-05,5.839220047,-0.002153,0.020744,0.075806,-0.013337,0.103464,0.093086
1139,3640000000.0,3.759246475e-05,0.000152282649644,6.72122444852,0.999999978114,1.67718716748e-07,-1.29468499466e-06,-0.00020921228663,-0.060814704746,-8.6326595921e-05,5.84131336212,-0.002153,0.020744,0.075806,-0.013337,0.103464,0.093086
1140,3650000000.0,3.86024759536e-05,0.000155792222358,6.78009796763,0.999999977194,1.65916873407e-07,-1.36958673647e-06,-0.000213563427511,-0.0612850636244,-7.51876796139e-05,5.88675832748,-0.002153,0.020744,0.075806,-0.013337,0.103464,0.093086
1141,3660000000.0,4.32084662094e-05,0.000157546950504,6.83899250617,0.999999976939,1.65147940712e-07,-1.45957247843e-06,-0.000214755526903,-0.061308644712,-7.51018524179e-05,5.88909578323,-0.002153,0.020744,0.075806,-0.013337,0.103464,0.093086
1142,3670000000.0,4.30270717544e-05,0.000160827650689,6.8983466908,0.999999976034,1.745869464e-07,-1.55528257473e-06,-0.00021892785041,-0.0617782212794,-6.47354099792e-05,5.93460512161,-0.002153,0.020744,0.075806,-0.013337,0.103464,0.093086
1143,3680000000.0,4.64416563588e-05,0.000162353506305,6.95772189485,0.999999975812,1.79105596299e-07,-1.61510083485e-06,-0.000219941132448,-0.0618047527969,-6.57272321414e-05,5.93716001511,-0.002153,0.020744,0.075806,-0.013337,0.103464,0.093086
1144,3690000000.0,4.89032113222e-05,0.000165405217555,7.01755487747,0.999999974925,1.82331838738e-07,-1.70976931568e-06,-0.00022393463861,-0.0622751526535,-5.60092921669e-05,5.98270845413,-0.002153,0.020744,0.075806,-0.013337,0.103464,0.093086
1145,3700000000.0,5.11065256106e-05,0.000166740384884,7.07741265429,0.999999974925,1.82331838738e-07,-1.70976931568e-06,-0.00022393463861,-0.0623025298119,-5.72013850628e-05,5.98545837402,-0.002153,0.020744,0.075806,-0.013337,0.103464,0.093086
1146,3710000000.0,5.23369455863e-05,0.000169563223608,7.13773011692,0.999999973873,1.90402379585e-07,-1.94019783673e-06,-0.000228583792089,-0.0627726241946,-4.76455679754e-05,6.031021595,-0.002153,0.020744,0.075806,-0.013337,0.103464,0.093086
1147,3720000000.0,5.33091249011e-05,0.000170669518408,7.19807237374,0.999999973873,1.90402379585e-07,-1.94019783673e-06,-0.000228583792089,-0.0628029555082,-5.02300244998e-05,6.03394508362,-0.002153,0.020744,0.075806,-0.013337,0.103464,0.093086
1148,3730000000.0,5.33084099033e-05,0.000173339853067,7.25887431638,0.999999972896,1.92767314056e-07,-2.1316138753e-06,-0.000232815721355,-0.063273742795,-4.19712050661e-05,6.07950687408,-0.002153,0.020744,0.075806,-0.013337,0.103464,0.093086
1149,3740000000.0,5.6824215271e-05,0.00017433159519,7.31970490743,0.999999972896,1.92767314056e-07,-2.1316138753e-06,-0.000232815721355,-0.0633061304688,-4.41169722776e-05,6.08258724213,-0.002153,0.020744,0.075806,-0.013337,0.103464,0.093086
1150,3750000000.0,5.55923652996e-05,0.000176811241541,7.38099133008,0.999999971986,2.02077973632e-07,-2.38752993442e-06,-0.000236690032144,-0.0637752115726,-3.6296842155e-05,6.12812423706,-0.002153,0.020744,0.075806,-0.013337,0.103464,0.093086
1151,3760000000.0,5.78571710292e-05,0.000177612295374,7.44230830837,0.999999971986,2.02077973632e-07,-2.38752993442e-06,-0.000236690032144,-0.0638070032001,-3.75270828967e-05,6.13134670258,-0.002153,0.020744,0.075806,-0.013337,0.103464,0.093086
1152,3770000000.0,5.91490824391e-05,0.00017993920482,7.50408497249,0.99999997109,2.08126444745e-07,-2.61067589291e-06,-0.000240445115121,-0.0642769634724,-2.98786162611e-05,6.17684793472,-0.002153,0.020744,0.075806,-0.013337,0.103464,0.093086
1153,3780000000.0,6.01430238447e-05,0.000180625938807,7.56589024529,0.99999997109,2.08126444745e-07,-2.61067589291e-06,-0.000240445115121,-0.0643122792244,-3.30448128807e-05,6.18019866943,-0.002153,0.020744,0.075806,-0.013337,0.103464,0.093086
1154,3790000000.0,6.01839356165e-05,0.000182762159962,7.62815329666,0.999999970324,2.02206753452e-07,-2.89363594297e-06,-0.000243604172797,-0.0647819489241,-2.681732076e-05,6.22565174103,-0.002153,0.020744,0.075806,-0.013337,0.103464,0.093086
1155,3800000000.0,5.99070127265e-05,0.000183334341276,7.69044686395,0.999999970324,2.02206753452e-07,-2.89363594297e-06,-0.000243604172797,-0.0648190975189,-2.93350221927e-05,6.22912073135,-0.002153,0.020744,0.075806,-0.013337,0.103464,0.093086
1156,3810000000.0,6.24915505583e-05,0.000185356126163,7.75319824955,0.999999969549,2.02952651074e-07,-3.11001857789e-06,-0.000246763214211,-0.0652891397476,-2.27642049158e-05,6.27451086044,-0.002153,0.020744,0.075806,-0.013337,0.103464,0.093086
1157,3820000000.0,6.0913966351e-05,0.000185737619177,7.81598297221,0.999999969549,2.02952651074e-07,-3.11001857789e-06,-0.000246763214211,-0.0653259903193,-2.52723693857e-05,6.27808570862,-0.002153,0.020744,0.075806,-0.013337,0.103464,0.093086
1158,3830000000.0,6.22375721946e-05,0.000187644967806,7.87922169868,0.999999968868,2.03907870033e-07,-3.3825772337e-06,-0.000249505031387,-0.0657948702574,-1.86252582361e-05,6.32340574265,-0.002153,0.020744,0.075806,-0.013337,0.103464,0.093086
1159,3840000000.0,6.32036140615e-05,0.000187911908146,7.94249475556,0.999999968868,2.03907870033e-07,-3.3825772337e-06,-0.000249505031387,-0.0658423230052,-2.2048949178e-05,6.32707929611,-0.002153,0.020744,0.075806,-0.013337,0.103464,0.093086
1160,3850000000.0,6.32364909308e-05,0.000189666752707,8.00622368378,0.999999968255,1.92074535166e-07,-3.48868505895e-06,-0.000251948819727,-0.0663219317794,-1.60408017118e-05,6.37232065201,-0.002153,0.020744,0.075806,-0.013337,0.103464,0.093086
1161,3860000000.0,6.29018714733e-05,0.000189857441001,8.06998789603,0.999999968255,1.92074535166e-07,-3.48868505895e-06,-0.000251948819727,-0.0663611367345,-1.91783892673e-05,6.37608528137,-0.002153,0.020744,0.075806,-0.013337,0.103464,0.093086
1162,3870000000.0,6.5458509745e-05,0.000191535917111,8.13420706571,0.999999967681,1.76840917687e-07,-3.60415460476e-06,-0.000254213790731,-0.0668299347162,-1.3885497538e-05,6.42123699188,-0.002153,0.020744,0.075806,-0.013337,0.103464,0.093086
1163,3880000000.0,6.38430936348e-05,0.000191574101333,8.19846052608,0.999999967681,1.76840917687e-07,-3.60415460476e-06,-0.000254213790731,-0.0668692588806,-1.68991082337e-05,6.4250869751,-0.002153,0.020744,0.075806,-0.013337,0.103464,0.093086
1164,3890000000.0,6.51487322614e-05,0.000193138141185,8.26316608302,0.999999967179,1.72509658225e-07,-3.67853508709e-06,-0.000256180749045,-0.0673378035426,-1.21498105745e-05,6.47014713287,-0.002153,0.020744,0.075806,-0.013337,0.103464,0.093086
1165,3900000000.0,6.22326548552e-05,0.000193138141185,8.32791069875,0.999999967179,1.72509658225e-07,-3.67853508709e-06,-0.000256180749045,-0.0673782154918,-1.4982223548e-05,6.47407436371,-0.002153,0.020744,0.075806,-0.013337,0.103464,0.093086
1166,3910000000.0,6.2247564486e-05,0.000194587628357,8.39310645743,0.999999966688,1.68534168843e-07,-3.78620514468e-06,-0.000258088101571,-0.0678463056684,-1.07097621376e-05,6.51903343201,-0.002153,0.020744,0.075806,-0.013337,0.103464,0.093086
1167,3920000000.0,6.18651808111e-05,0.000194511376318,8.45834036101,0.999999966688,1.68534168843e-07,-3.78620514468e-06,-0.000258088101571,-0.067888237536,-1.35040281761e-05,6.52303695679,-0.002153,0.020744,0.075806,-0.013337,0.103464,0.093086
1168,3930000000.0,6.05992938034e-05,0.000195884727873,8.52402536781,0.999999966302,1.61727666426e-07,-3.85486323928e-06,-0.000259578213637,-0.0683544576168,-7.99179088107e-06,6.5678935051,-0.002153,0.020744,0.075806,-0.013337,0.103464,0.093086
1169,3940000000.0,5.89460457974e-05,0.000195732107382,8.58974756589,0.999999966302,1.61727666426e-07,-3.85486323928e-06,-0.000259578213637,-0.068396627903,-1.19113919941e-05,6.5719628334,-0.002153,0.020744,0.075806,-0.013337,0.103464,0.093086
1170,3950000000.0,6.02436495427e-05,0.000197029090483,8.65591899967,0.999999965945,1.58478638324e-07,-3.94536846526e-06,-0.00026094911412,-0.0688625350595,-6.62803631846e-06,6.61671113968,-0.002153,0.020744,0.075806,-0.013337,0.103464,0.093086
1171,3960000000.0,5.72996725623e-05,0.00019680021796,8.7221313995,0.999999965945,1.58478638324e-07,-3.94536846526e-06,-0.00026094911412,-0.0689054727554,-1.03473657882e-05,6.62084817886,-0.002153,0.020744,0.075806,-0.013337,0.103464,0.093086
1172,3970000000.0,5.73264119765e-05,0.000197982764803,8.78879112777,0.999999965602,1.58051874755e-07,-4.00414534835e-06,-0.00026226042507,-0.069371022284,-5.30242914643e-06,6.66548395157,-0.002153,0.020744,0.075806,-0.013337,0.103464,0.093086
1173,3980000000.0,5.69260610703e-05,0.000197677523822,8.85549186182,0.999999965602,1.58051874755e-07,-4.00414534835e-06,-0.00026226042507,-0.0694149509072,-9.16480985502e-06,6.66968250275,-0.002153,0.020744,0.075806,-0.013337,0.103464,0.093086
1174,3990000000.0,5.56918685035e-05,0.000198822002858,8.92263893098,0.999999965319,1.62910916146e-07,-4.06968551731e-06,-0.000263333296613,-0.0698780938983,-5.68389896349e-06,6.7142033577,-0.002153,0.020744,0.075806,-0.013337,0.103464,0.093086
1175,4000000000.0,5.4030585602e-05,0.000198478694074,8.9898270059,0.999999965586,1.56784383754e-07,-4.08216731473e-06,-0.000262320030846,-0.0699231475592,-9.01222210814e-06,6.71846246719,-0.002153,0.020744,0.075806,-0.013337,0.103464,0.093086
1176,4010000000.0,5.15453933971e-05,0.000199546804652,9.0574604623,0.999999965099,1.51024673489e-07,-4.10609291224e-06,-0.000264167761354,-0.0703859627247,-4.87327543075e-06,6.76286506653,-0.002153,0.020744,0.075806,-0.013337,0.103464,0.093086
1177,4020000000.0,5.24376688986e-05,0.000199165311642,9.12513591783,0.999999965351,1.47575449583e-07,-4.12325676713e-06,-0.000263214101358,-0.0704319477081,-7.84873918835e-06,6.76717996597,-0.002153,0.020744,0.075806,-0.013337,0.103464,0.093086
1178,4030000000.0,4.87114093772e-05,0.000200195237994,9.19325480786,0.999999964878,1.46496521025e-07,-4.13990149423e-06,-0.000265002226066,-0.0708940327167,-4.22477705841e-06,6.81146144867,-0.002153,0.020744,0.075806,-0.013337,0.103464,0.093086
1179,4040000000.0,4.83725498981e-05,0.000199775677171,9.2614147434,0.999999965162,1.44356073761e-07,-4.1336589926e-06,-0.000263929354503,-0.0709409639239,-8.27789244973e-06,6.81583213806,-0.002153,0.020744,0.075806,-0.013337,0.103464,0.093086
1180,4050000000.0,4.71998487797e-05,0.000200767535716,9.33002101403,0.999999964704,1.41952527122e-07,-4.13938023258e-06,-0.00026565788969,-0.0714009106159,-2.75611864842e-06,6.85999441147,-0.002153,0.020744,0.075806,-0.013337,0.103464,0.093086
1181,4060000000.0,4.56099896482e-05,0.000200309674248,9.39866733682,0.999999964989,1.3947924804e-07,-4.14146002364e-06,-0.000264585001873,-0.0714469105005,-6.24656650006e-06,6.86441516876,-0.002153,0.020744,0.075806,-0.013337,0.103464,0.093086
1182,4070000000.0,4.32260182208e-05,0.000201225280762,9.46775618022,0.999999964562,1.36439667175e-07,-4.14614077116e-06,-0.000266194325498,-0.0719060152769,-1.85966484922e-06,6.90845060349,-0.002153,0.020744,0.075806,-0.013337,0.103464,0.093086
1183,4080000000.0,4.03851594371e-05,0.000200729351491,9.53688889026,0.999999964863,1.37111712095e-07,-4.13313708353e-06,-0.000265061831888,-0.0719537734985,-6.53266897777e-06,6.91292572021,-0.002153,0.020744,0.075806,-0.013337,0.103464,0.093086
1184,4090000000.0,3.6779985372e-05,0.000201606773771,9.60646126004,0.999999964435,1.28296269497e-07,-4.12377227349e-06,-0.000266671155538,-0.0724131241441,-9.05990590994e-07,6.95683765411,-0.002153,0.020744,0.075806,-0.013337,0.103464,0.093086
1185,4100000000.0,3.65423466633e-05,0.0002011108445,9.67607658257,0.999999964736,1.37906667252e-07,-4.10192844275e-06,-0.000265538678147,-0.0724612772465,-5.79833977188e-06,6.96135902405,-0.002153,0.020744,0.075806,-0.013337,0.103464,0.093086
1186,4110000000.0,3.16961052675e-05,0.000201950082552,9.74613438598,0.999999964339,1.26379692267e-07,-4.08059947288e-06,-0.000267028790245,-0.0729204341769,-9.63211051808e-07,7.00514268875,-0.002153,0.020744,0.075806,-0.013337,0.103464,0.093086
1187,4120000000.0,3.02173992495e-05,0.000201339717027,9.81623514214,0.999999964657,1.23923696804e-07,-4.03170470525e-06,-0.00026583669087,-0.072971239686,-5.27381871596e-06,7.00971460342,-0.002153,0.020744,0.075806,-0.013337,0.103464,0.093086
1188,4130000000.0,2.80041749292e-05,0.000202178955078,9.88677269718,0.99999996426,1.07949144124e-07,-3.98384694389e-06,-0.000267326819242,-0.0734292119741,-4.76837138663e-08,7.05337095261,-0.002153,0.020744,0.075806,-0.013337,0.103464,0.093086
1189,4140000000.0,2.53141985951e-05,0.000201568589546,9.9573560261,0.999999964578,1.056053755e-07,-3.92350895845e-06,-0.000266134719867,-0.0734787657857,-4.15802014775e-06,7.05798864365,-0.002153,0.020744,0.075806,-0.013337,0.103464,0.093086
1190,4150000000.0,2.18897039446e-05,0.000202331459146,10.0283761539,0.999999964213,9.42912738999e-08,-3.86264868651e-06,-0.0002675056204,-0.0739357098937,-5.81741347983e-07,7.10151433945,-0.002153,0.020744,0.075806,-0.013337,0.103464,0.093086
1191,4160000000.0,2.5627370384e-05,0.000201721210036,10.0994411814,0.999999964547,9.31200831444e-08,-3.78306552562e-06,-0.000266253931493,-0.0739863738418,-4.80651851964e-06,7.10618066788,-0.002153,0.020744,0.075806,-0.013337,0.103464,0.093086
1192,4170000000.0,2.48358928019e-05,0.000202484079633,10.1709410608,0.999999964182,8.51916050482e-08,-3.71544420996e-06,-0.000267624832012,-0.0744388625026,7.24792470486e-07,7.14957666397,-0.002153,0.020744,0.075806,-0.013337,0.103464,0.093086
1193,4180000000.0,2.35676632272e-05,0.000201644841585,10.2424867141,0.999999964516,8.86577318782e-08,-3.64002348407e-06,-0.000266373143087,-0.0744884833693,-4.48226910654e-06,7.15428590775,-0.002153,0.020744,0.075806,-0.013337,0.103464,0.093086
1194,4190000000.0,2.15847800078e-05,0.000202598515894,10.3144672591,0.999999964134,8.33278842038e-08,-3.56928197054e-06,-0.000267803649378,-0.0749413073063,-4.22477705841e-06,7.19755029678,-0.002153,0.020744,0.075806,-0.013337,0.103464,0.093086
1195,4200000000.0,2.29495674802e-05,0.000201759277843,10.386492664,0.999999964501,8.6020496004e-08,-3.4896998426e-06,-0.000266432748892,-0.0749914422631,-3.43322744945e-06,7.20230960846,-0.002153,0.020744,0.075806,-0.013337,0.103464,0.093086
1196,4210000000.0,2.74141916918e-05,0.000202674884349,10.4589530003,0.999999964135,8.42690324188e-08,-3.41791898156e-06,-0.000267803649387,-0.0754414945841,-2.55584700515e-06,7.24543857574,-0.002153,0.020744,0.075806,-0.013337,0.103464,0.093086
1197,4220000000.0,2.75975058628e-05,0.000201835646301,10.5314581171,0.999999964501,8.43532919625e-08,-3.3497794264e-06,-0.00026643274891,-0.0754896253347,-2.20298761722e-06,7.25024080276,-0.002153,0.020744,0.075806,-0.013337,0.103464,0.093086
1198,4230000000.0,3.09104537592e-05,0.000202712952163,10.6043953044,0.999999964135,8.99978450652e-08,-3.29360500168e-06,-0.000267803649379,-0.0759366378188,-1.88827505188e-06,7.29323816299,-0.002153,0.020744,0.075806,-0.013337,0.103464,0.093086
1199,4240000000.0,3.37367173273e-05,0.000201797462068,10.6773792192,0.999999964517,8.95620741459e-08,-3.24211004993e-06,-0.000266373143119,-0.0759854838252,-1.14440911325e-06,7.29808473587,-0.002153,0.020744,0.075806,-0.013337,0.103464,0.093086
1200,4250000000.0,3.58979889228e-05,0.000202674884349,10.7507932576,0.999999964183,9.83700664814e-08,-3.20310137125e-06,-0.000267624832013,-0.0764304921031,-2.39372252597e-06,7.34094905853,-0.002153,0.020744,0.075806,-0.013337,0.103464,0.093086
1201,4260000000.0,3.37481534629e-05,0.000201759277843,10.8242549373,0.999999964549,1.04458502126e-07,-3.16513201348e-06,-0.000266253931514,-0.0764798372984,-1.1157989106e-06,7.34583902359,-0.002153,0.020744,0.075806,-0.013337,0.103464,0.093086
1202,4270000000.0,3.85821714488e-05,0.000202598515894,10.8981449128,0.999999964215,1.06010446532e-07,-3.13548408648e-06,-0.000267505620431,-0.0769255012274,-1.79290771118e-06,7.38856983185,-0.002153,0.020744,0.075806,-0.013337,0.103464,0.093086
1203,4280000000.0,3.90951500506e-05,0.000201644841585,10.9720834833,0.999999964581,1.09827723915e-07,-3.10895738204e-06,-0.000266134719939,-0.0769740864635,-1.33514402156e-06,7.39350128174,-0.002153,0.020744,0.075806,-0.013337,0.103464,0.093086
1204,4290000000.0,3.89630013586e-05,0.000202484079637,11.0464502701,0.999999964263,1.15914984333e-07,-3.09387482811e-06,-0.000267326819313,-0.0774165391922,-1.46865841266e-06,7.43609952927,-0.002153,0.020744,0.075806,-0.013337,0.103464,0.093086
1205,4300000000.0,4.21586586938e-05,0.000201530405317,11.1208638241,0.999999964645,1.13866124807e-07,-3.07930996035e-06,-0.000265896296801,-0.0774674490094,-1.63078300508e-06,7.44107341766,-0.002153,0.020744,0.075806,-0.013337,0.103464,0.093086
1206,4310000000.0,4.47290533856e-05,0.00020233145915,11.1957036871,0.999999964295,1.22743921138e-07,-3.08035277585e-06,-0.000267207607729,-0.0779069662094,-1.65939332097e-06,7.48353719711,-0.002153,0.020744,0.075806,-0.013337,0.103464,0.093086
1207,4320000000.0,4.67928990702e-05,0.000201415969055,11.2705921849,0.999999964661,1.25422106478e-07,-3.08451451164e-06,-0.000265836690982,-0.0779570862651,-2.36511232332e-06,7.48855352402,-0.002153,0.020744,0.075806,-0.013337,0.103464,0.093086
1208,4330000000.0,4.82414144614e-05,0.000202217022888,11.3459060381,0.999999964359,1.33302533456e-07,-3.1037622526e-06,-0.000266969184564,-0.0783952698112,-1.21116636453e-06,7.53088378906,-0.002153,0.020744,0.075806,-0.013337,0.103464,0.093086
1209,4340000000.0,4.91833808383e-05,0.000201263348572,11.421268526,0.99999996474,1.39174846703e-07,-3.12196882568e-06,-0.000265538678278,-0.0784461647272,-1.23023983267e-06,7.53593969345,-0.002153,0.020744,0.075806,-0.013337,0.103464,0.093086
1210,4350000000.0,4.95398139222e-05,0.000202026334591,11.4970535085,0.999999964438,1.46526716149e-07,-3.15422015396e-06,-0.000266671155604,-0.0788833200932,-1.85966484922e-06,7.57813501358,-0.002153,0.020744,0.075806,-0.013337,0.103464,0.093086
1211,4360000000.0,4.93698333202e-05,0.000201072660275,11.572889033,0.999999964803,1.50152608958e-07,-3.18282909118e-06,-0.000265300255105,-0.0789352059364,-1.78337097712e-06,7.58323478699,-0.002153,0.020744,0.075806,-0.013337,0.103464,0.093086
1212,4370000000.0,5.24288097807e-05,0.000201835646298,11.6491470918,0.999999964517,1.54594003432e-07,-3.22288187454e-06,-0.000266373142912,-0.0793716013432,-1.5640258666e-06,7.62529468536,-0.002153,0.020744,0.075806,-0.013337,0.103464,0.093086
1213,4380000000.0,5.49713049196e-05,0.000200920039784,11.7254547389,0.999999964882,1.57100229492e-07,-3.26397406936e-06,-0.000265002226159,-0.0794227421284,-2.00271597484e-06,7.63043308258,-0.002153,0.020744,0.075806,-0.013337,0.103464,0.093086
1214,4390000000.0,5.69381990729e-05,0.000201721210033,11.8021839269,0.999999964585,4.40621483744e-10,-1.65563309545e-06,-0.000266134720279,-0.0802932828665,-1.45912167859e-06,7.67235374451,-0.002153,0.020744,0.075806,-0.013337,0.103464,0.093086
1215,4400000000.0,6.2213034596e-05,0.000200729351494,11.8789617894,0.999999964997,-2.66331883825e-07,5.93674074345e-08,-0.000264585002433,-0.0803913772106,-1.33514402156e-06,7.67753410339,-0.002153,0.020744,0.075806,-0.013337,0.103464,0.093086
1216,4410000000.0,6.31077110995e-05,0.000201492221091,11.9561601995,0.999999964711,-5.33148977855e-07,1.9460175304e-06,-0.000265657889238,-0.0808981508017,-3.24249272321e-07,7.71932315826,-0.002153,0.020744,0.075806,-0.013337,0.103464,0.093086
1217,4420000000.0,7.11148870352e-05,0.000200538546775,12.0334082774,0.999999965084,-7.99975094778e-07,3.88624153558e-06,-0.000264227364648,-0.0809823274612,-1.23023983267e-06,7.72454309464,-0.002153,0.020744,0.075806,-0.013337,0.103464,0.093086
1218,4430000000.0,7.47617686017e-05,0.000201263348572,12.1110749957,0.99999996479,-8.00522828248e-07,5.93510785346e-06,-0.000265300250835,-0.0814729854465,-7.43865941288e-07,7.76619815826,-0.002153,0.020744,0.075806,-0.013337,0.103464,0.093086
1219,4440000000.0,8.16867945446e-05,0.000200347858485,12.1887932493,0.999999965154,-1.06736595085e-06,7.96583724588e-06,-0.000263869740821,-0.0815458744764,4.1007993401e-07,7.77145910263,-0.002153,0.020744,0.075806,-0.013337,0.103464,0.093086
1220,4450000000.0,8.42713908114e-05,0.000201072660275,12.2669282359,0.999999964836,-1.06793216459e-06,1.00672389237e-05,-0.000265002215932,-0.0820312798023,1.14440914079e-07,7.81297636032,-0.002153,0.020744,0.075806,-0.013337,0.103464,0.093086
1221,4460000000.0,9.01440637762e-05,0.000200118985958,12.3451138043,0.999999965175,-1.06845914155e-06,1.21192238214e-05,-0.000263631313256,-0.0820969119668,1.41143800469e-06,7.81827974319,-0.002153,0.020744,0.075806,-0.013337,0.103464,0.093086
1222,4470000000.0,9.55007297634e-05,0.000200843787749,12.4237151919,0.999999964912,-1.06901685393e-06,1.41873357323e-05,-0.000264525381526,-0.0825665295124,7.15255736417e-07,7.85966157913,-0.002153,0.020744,0.075806,-0.013337,0.103464,0.093086
1223,4480000000.0,0.000104125607798,0.000199928297658,12.5023690684,0.999999965259,-1.06952060591e-06,1.61784631785e-05,-0.000263094873131,-0.0826270207763,1.17301942604e-06,7.86500453949,-0.002153,0.020744,0.075806,-0.013337,0.103464,0.093086
1224,4490000000.0,0.000104625362781,0.000200386042707,12.5814367774,0.999999964942,-1.07005844807e-06,1.8148267187e-05,-0.000264167742596,-0.0830875486135,2.85148621382e-06,7.90625143051,-0.002153,0.020744,0.075806,-0.013337,0.103464,0.093086
1225,4500000000.0,0.000108403262118,0.000199470436197,12.6605560218,0.999999965268,-1.07052991299e-06,2.00374455659e-05,-0.00026279684009,-0.0831470787525,-2.35557558925e-06,7.91163396835,-0.002153,0.020744,0.075806,-0.013337,0.103464,0.093086
1226,4510000000.0,0.000115509441862,0.000200195237991,12.7400882642,0.999999964977,-1.0710415852e-06,2.19042600177e-05,-0.000263750514354,-0.0836041420698,-1.1730194287e-06,7.95274686813,-0.002153,0.020744,0.075806,-0.013337,0.103464,0.093086
1227,4520000000.0,0.000122059410941,0.000199203495871,12.8196739095,0.999999965313,-1.07147438499e-06,2.3674324298e-05,-0.000262320006191,-0.0836596786976,-8.10623136172e-07,7.95816993713,-0.002153,0.020744,0.075806,-0.013337,0.103464,0.093086
1228,4530000000.0,0.000124338476652,0.000199928297661,12.8996696124,0.999999965004,-1.07195751459e-06,2.54183837349e-05,-0.000263333270112,-0.0841137096286,-3.14712510274e-07,7.99914360046,-0.002153,0.020744,0.075806,-0.013337,0.103464,0.093086
1229,4540000000.0,0.00012987582209,0.000198974623341,12.979718758,0.999999965321,-1.07235583774e-06,2.7071934786e-05,-0.000261962367855,-0.0841697975993,-1.33514406642e-07,8.0046081543,-0.002153,0.020744,0.075806,-0.013337,0.103464,0.093086
1230,4550000000.0,0.000138761312584,0.000199661240909,13.0601789944,0.999999965041,-1.07280250028e-06,2.86781547086e-05,-0.000262856436612,-0.0846158415079,-7.91549667589e-07,8.04544639587,-0.002153,0.020744,0.075806,-0.013337,0.103464,0.093086
1231,4560000000.0,0.000143295966708,0.000198707566589,13.1406906867,0.999999965372,-1.07315996284e-06,3.02021886884e-05,-0.00026142592871,-0.0846739187837,1.33514403089e-07,8.05095100403,-0.002153,0.020744,0.075806,-0.013337,0.103464,0.093086
1232,4570000000.0,0.00014736427552,0.000199355999939,13.22161343,0.999999965045,-1.07357871509e-06,3.16747306007e-05,-0.000262498798702,-0.0851158946753,6.67572008339e-07,8.0916519165,-0.002153,0.020744,0.075806,-0.013337,0.103464,0.093086
1233,4580000000.0,0.000150886305981,0.000198440509852,13.3025886226,0.999999965359,-1.07389839982e-06,3.30640461487e-05,-0.000261127896726,-0.0851712748408,1.12533564245e-06,8.09719753265,-0.002153,0.020744,0.075806,-0.013337,0.103464,0.093086
1234,4590000000.0,0.000157796210864,0.000199089059603,13.3839710915,0.999999965096,-8.07959559757e-07,3.4400239102e-05,-0.00026196236915,-0.0856112912297,1.26838676628e-06,8.1377620697,-0.002153,0.020744,0.075806,-0.013337,0.103464,0.093086
1235,4600000000.0,0.000164149905075,0.000198097201068,13.4654069632,0.99999996541,-8.0824000781e-07,3.56569171148e-05,-0.00026059146765,-0.085666462779,2.17437741235e-06,8.14334774017,-0.002153,0.020744,0.075806,-0.013337,0.103464,0.093086
1236,4610000000.0,0.000200592906275,0.000198783818632,13.5472503894,0.999999964546,-3.20892730432e-06,5.02315890848e-05,-0.000261485405927,-0.0896161347628,7.43865938624e-07,8.18371009827,-0.002153,0.020744,0.075806,-0.013337,0.103464,0.093086
1237,4620000000.0,0.000236479696831,0.000197563087568,13.6291472184,0.999999964018,-5.07707841141e-06,6.56529158203e-05,-0.000260054711501,-0.0900662019849,2.18391414641e-06,8.18935203552,-0.002153,0.020744,0.075806,-0.013337,0.103464,0.093086
1238,4630000000.0,0.000283403207185,0.000198402325623,13.7114494959,0.999999962472,-6.67947106714e-06,8.26034219313e-05,-0.00026112738124,-0.0911035984755,-2.61306763782e-06,8.2296333313,-0.002153,0.020744,0.075806,-0.013337,0.103464,0.093086
1239,4640000000.0,0.00032976057453,0.000197372399271,13.79380613,0.999999961243,-8.01542816437e-06,9.98846566772e-05,-0.000259756232291,-0.0914257913828,2.13623047607e-06,8.23529434204,-0.002153,0.020744,0.075806,-0.013337,0.103464,0.093086
1240,4650000000.0,0.000379535613298,0.000198020949021,13.8765671794,0.999999959031,-9.0855206879e-06,0.000118100545929,-0.000260590425127,-0.0923424065113,-3.91006468092e-07,8.27543926239,-0.002153,0.020744,0.075806,-0.013337,0.103464,0.093086
1241,4660000000.0,0.000436373489791,0.000196990906261,13.9593826649,0.999999957107,-9.88896322501e-06,0.000136102043817,-0.000259159630286,-0.0925752148032,-1.27792350302e-06,8.28114700317,-0.002153,0.020744,0.075806,-0.013337,0.103464,0.093086
1242,4670000000.0,0.000485215363568,0.000197639456015,14.0425995857,0.999999954191,-1.04265145335e-05,0.000154538339055,-0.000260053436086,-0.0933976620436,-2.11715701059e-06,8.32115936279,-0.002153,0.020744,0.075806,-0.013337,0.103464,0.093086
1243,4680000000.0,0.000548729191173,0.00019687647,14.1258729291,0.999999951618,-1.09635709158e-05,0.000172503875399,-0.000258622650599,-0.0935702472925,-2.21252435129e-06,8.32690620422,-0.002153,0.020744,0.075806,-0.013337,0.103464,0.093086
1244,4690000000.0,0.000604256948378,0.000197448651306,14.2095467543,0.999999948087,-1.12347441478e-05,0.000190578079295,-0.000259576077892,-0.0943200290203,2.67028803957e-06,8.36678218842,-0.002153,0.020744,0.075806,-0.013337,0.103464,0.093086
1245,4700000000.0,0.00066302312063,0.000196418724951,14.2932759294,0.99999994499,-1.15052758672e-05,0.000207964619976,-0.000258145304644,-0.0944482758641,3.05175774429e-07,8.37256908417,-0.002153,0.020744,0.075806,-0.013337,0.103464,0.093086
1246,4710000000.0,0.000729061184003,0.000197029090486,14.3774057451,0.999999940988,-1.1509960424e-05,0.000225231485138,-0.000259158387966,-0.0951441377401,-2.47955314059e-07,8.41230773926,-0.002153,0.020744,0.075806,-0.013337,0.103464,0.093086
1247,4720000000.0,0.000790708681642,0.000196151668213,14.4615908312,0.999999937499,-1.15138954059e-05,0.000241693653158,-0.000257787298006,-0.0952388644218,-1.11579891104e-06,8.4181394577,-0.002153,0.020744,0.075806,-0.013337,0.103464,0.093086
1248,4730000000.0,0.000855833444675,0.000196800217964,14.546174611,0.999999933242,-1.15182815182e-05,0.000257873405535,-0.000258621576352,-0.095887504518,-9.53674277326e-08,8.45774078369,-0.002153,0.020744,0.075806,-0.013337,0.103464,0.093086
1249,4740000000.0,0.000927991248474,0.000195655738935,14.6308156876,0.99999992953,-1.12555547991e-05,0.000273196379461,-0.000257250572147,-0.0959633812308,4.48226925798e-07,8.46361160278,-0.002153,0.020744,0.075806,-0.013337,0.103464,0.093086
1250,4750000000.0,0.000999851556614,0.000196380540729,14.7158516037,0.999999925127,-1.12596339171e-05,0.000288118412133,-0.000258084868827,-0.0965706631541,-2.68936151038e-06,8.503074646,-0.002153,0.020744,0.075806,-0.013337,0.103464,0.093086
1251,4760000000.0,0.00107109606009,0.000195426866409,14.8009466445,0.999999921337,-1.09965275283e-05,0.000302163901465,-0.000256713874447,-0.096631705761,-1.71661372583e-06,8.50898933411,-0.002153,0.020744,0.075806,-0.013337,0.103464,0.093086
1252,4770000000.0,0.00114205300027,0.00019607541617,14.886435571,0.999999916872,-1.07340155043e-05,0.000315878080759,-0.000257607878174,-0.0972418561578,-5.05447362187e-07,8.54831504822,-0.002153,0.020744,0.075806,-0.013337,0.103464,0.093086
1253,4780000000.0,0.00121240406811,0.000195159926079,14.9719826686,0.999999913106,-1.02042214242e-05,0.000328720398277,-0.000256177409196,-0.0972918868065,2.57492045463e-07,8.55426883698,-0.002153,0.020744,0.075806,-0.013337,0.103464,0.093086
1254,4790000000.0,0.00128628206301,0.000195808359418,15.0579236917,0.9999999087,-9.94143275113e-06,0.000341061386313,-0.000257250261843,-0.0978432819247,1.52587885438e-07,8.59345626831,-0.002153,0.020744,0.075806,-0.013337,0.103464,0.093086
1255,4800000000.0,0.00135956411791,0.000194854685109,15.1439219322,0.999999905106,-9.67753433856e-06,0.000352579473726,-0.000255700507224,-0.0978912487626,1.25885003222e-06,8.59945297241,-0.002153,0.020744,0.075806,-0.013337,0.103464,0.093086
1256,4810000000.0,0.00143638303221,0.000195465050634,15.2303131447,0.999999900917,-9.41438204405e-06,0.000363600322966,-0.000256654173588,-0.0984235778451,7.62939406762e-07,8.63850307465,-0.002153,0.020744,0.075806,-0.013337,0.103464,0.093086
1257,4820000000.0,0.00154312192948,0.000194511376318,15.3167618923,0.999999892421,-1.12840991526e-05,0.000387119825168,-0.000255282330042,-0.10195940733,1.24931329815e-06,8.64449882507,-0.002153,0.020744,0.075806,-0.013337,0.103464,0.093086
1258,4830000000.0,0.00165721217654,0.000194969121363,15.4036036517,0.999999881853,-1.3155249438e-05,0.000412947249897,-0.00025611573333,-0.103381872177,7.53402672693e-07,8.68339538574,-0.002153,0.020744,0.075806,-0.013337,0.103464,0.093086
1259,4840000000.0,0.00177833546432,0.000194129883312,15.4905027078,0.999999870936,-1.47593041908e-05,0.000439336337433,-0.000254743767467,-0.103935182095,-2.44140619721e-06,8.68946170807,-0.002153,0.020744,0.075806,-0.013337,0.103464,0.093086
1260,4850000000.0,0.00189921091815,0.000194854685102,15.5777918353,0.99999985809,-1.6098360801e-05,0.000467162558315,-0.000255577199223,-0.105157390237,-2.95639042136e-07,8.72822570801,-0.002153,0.020744,0.075806,-0.013337,0.103464,0.093086
1261,4860000000.0,0.00202709954805,0.00019382475875,15.6651401669,0.999999845129,-1.69036714646e-05,0.000494838803967,-0.000254145852142,-0.105558395386,3.40461724413e-06,8.73434352875,-0.002153,0.020744,0.075806,-0.013337,0.103464,0.093086
1262,4870000000.0,0.00216238918939,0.000194396940056,15.7528767421,0.999999830469,-1.79766014784e-05,0.000523157538919,-0.000255038886413,-0.106629788876,2.88963314965e-06,8.77296924591,-0.002153,0.020744,0.075806,-0.013337,0.103464,0.093086
1263,4880000000.0,0.0022970580599,0.000193405081518,15.8406729187,0.999999815963,-1.85155310549e-05,0.000550802505343,-0.000253667195699,-0.106921263039,5.43594352642e-07,8.77913093567,-0.002153,0.020744,0.075806,-0.013337,0.103464,0.093086
1264,4890000000.0,0.00243913290801,0.000193939195015,15.928856862,0.999999800058,-1.87893773319e-05,0.000578584762719,-0.000254500991673,-0.10787576437,2.09808347584e-07,8.8176202774,-0.002153,0.020744,0.075806,-0.013337,0.103464,0.093086
1265,4900000000.0,0.00258058698527,0.00019302370492,16.0171004068,0.99999978454,-1.90616843079e-05,0.0006053776562,-0.000253129410447,-0.108092591166,-9.63211052252e-07,8.82382392883,-0.002153,0.020744,0.075806,-0.013337,0.103464,0.093086
1266,4910000000.0,0.00272946690482,0.000193748390299,16.1057298111,0.999999767735,-1.93353452265e-05,0.000632161228928,-0.000254022801767,-0.109017550945,-1.36375422422e-06,8.86217498779,-0.002153,0.020744,0.075806,-0.013337,0.103464,0.093086
1267,4920000000.0,0.00288154054391,0.000192642211914,16.1944188566,0.999999751612,-1.90746130204e-05,0.000657708230406,-0.000252651582691,-0.109171681106,2.27928148711e-06,8.86842346191,-0.002153,0.020744,0.075806,-0.013337,0.103464,0.093086
1268,4930000000.0,0.00303723546723,0.00019329064525,16.2834927682,0.999999734619,-1.90815830978e-05,0.000682702944956,-0.000253604781889,-0.109948992729,-1.44004821045e-06,8.90663528442,-0.002153,0.020744,0.075806,-0.013337,0.103464,0.093086
1269,4940000000.0,0.00319229968736,0.000192375155166,16.3726272348,0.999999718527,-1.88203009006e-05,0.000706378451748,-0.00025223360177,-0.11006835103,-1.16348269419e-06,8.91292858124,-0.002153,0.020744,0.075806,-0.013337,0.103464,0.093086
1270,4950000000.0,0.00335100505641,0.000192985520702,16.4621446604,0.999999701834,-1.85603842666e-05,0.000729344516463,-0.00025306782819,-0.110788427293,-9.15527325063e-07,8.95100212097,-0.002153,0.020744,0.075806,-0.013337,0.103464,0.093086
1271,4960000000.0,0.00350907475612,0.000192070030607,16.5517231178,0.999999686043,-1.8032242488e-05,0.000751156784446,-0.000251696923272,-0.110935047269,-3.91006468092e-07,8.95733642578,-0.002153,0.020744,0.075806,-0.013337,0.103464,0.093086
1272,4970000000.0,0.00367842451781,0.000192642211914,16.64168366,0.99999966985,-1.77718560861e-05,0.00077214732395,-0.000252531214794,-0.111602887511,1.19209289373e-06,8.99527168274,-0.002153,0.020744,0.075806,-0.013337,0.103464,0.093086
1273,4980000000.0,0.00384712867782,0.000191764789633,16.7317061877,0.999999654863,-1.72430497833e-05,0.000791785891158,-0.000251100781638,-0.111678130925,1.05857850397e-06,9.00164985657,-0.002153,0.020744,0.075806,-0.013337,0.103464,0.093086
1274,4990000000.0,0.00401569922571,0.00019229890313,16.82210782,0.999999639481,-1.67158527499e-05,0.000810732178931,-0.000251935351146,-0.112351804972,8.58306860252e-07,9.0394449234,-0.002153,0.020744,0.075806,-0.013337,0.103464,0.093086
1275,5000000000.0,0.00417979478304,0.00019134522881,16.9125728286,0.999999625375,-1.61865299828e-05,0.000828374938707,-0.000250564581137,-0.112415604293,1.12533564245e-06,9.04586791992,-0.002153,0.020744,0.075806,-0.013337,0.103464,0.093086
1276,5010000000.0,0.00435903455439,0.000191879225898,17.0034151935,0.99999961102,-1.56588424405e-05,0.000845289005319,-0.000251399221949,-0.113051109016,-2.76565545576e-07,9.08352279663,-0.002153,0.020744,0.075806,-0.013337,0.103464,0.093086
1277,5020000000.0,0.00455287178708,0.000190963735808,17.0943211332,0.999999589139,-1.69957796609e-05,0.000871142776539,-0.000250086362824,-0.115781717002,-7.05719005012e-07,9.08995437622,-0.002153,0.020744,0.075806,-0.013337,0.103464,0.093086
1278,5030000000.0,0.00475423915153,0.000191459665071,17.1856029195,0.999999564967,-1.80685094243e-05,0.00089822510478,-0.000250859804213,-0.117033548653,-1.53541566394e-06,9.12745952606,-0.002153,0.020744,0.075806,-0.013337,0.103464,0.093086
1279,5040000000.0,0.00496256506423,0.00019062042702,17.2769491547,0.999999540442,-1.88730751373e-05,0.000925464933547,-0.000249547278398,-0.117557965219,-2.02178944342e-06,9.13396167755,-0.002153,0.020744,0.075806,-0.013337,0.103464,0.093086
1280,5050000000.0,0.00517843104102,0.000191116356298,17.3686702828,0.999999514108,-1.96797589292e-05,0.000953260839392,-0.000250380456423,-0.118641413748,-1.39236442642e-06,9.17132949829,-0.002153,0.020744,0.075806,-0.013337,0.103464,0.093086
1281,5060000000.0,0.00539363651765,0.000190467806537,17.4604548268,0.99999948813,-2.02180219968e-05,0.000980427259392,-0.000249187300676,-0.118976704776,-2.07901007521e-06,9.17788028717,-0.002153,0.020744,0.075806,-0.013337,0.103464,0.093086
1282,5070000000.0,0.00561638205839,0.000190772931091,17.5526142636,0.999999460956,-2.04917682074e-05,0.00100759416845,-0.000249842130006,-0.119941443205,2.67982477364e-06,9.21510982513,-0.002153,0.020744,0.075806,-0.013337,0.103464,0.093086
1283,5080000000.0,0.00584228158934,0.000190048129294,17.6448371561,0.999999434262,-2.07634002454e-05,0.00103404427405,-0.00024858962427,-0.120260804892,-2.80380231921e-06,9.22170543671,-0.002153,0.020744,0.075806,-0.013337,0.103464,0.093086
1284,5090000000.0,0.00606810213597,0.000190544058569,17.7374339084,0.999999406772,-2.0770762049e-05,0.00106010008219,-0.000249423547411,-0.12112249434,2.35557558703e-06,9.25879669189,-0.002153,0.020744,0.075806,-0.013337,0.103464,0.093086
1285,5100000000.0,0.00630088123084,0.000189628568478,17.8300951096,0.999999380427,-2.07754784614e-05,0.0010849808299,-0.000248052114605,-0.121320009232,1.14440913634e-07,9.26543903351,-0.002153,0.020744,0.075806,-0.013337,0.103464,0.093086
1286,5110000000.0,0.00653361610459,0.000190124497752,17.923126833,0.999999353355,-2.05161629009e-05,0.00110946988361,-0.000248886365415,-0.122172094882,-1.00135798853e-06,9.30238723755,-0.002153,0.020744,0.075806,-0.013337,0.103464,0.093086
1287,5120000000.0,0.00677329462807,0.000189285259697,18.0162244358,0.999999327712,-2.02540641637e-05,0.00113265280039,-0.000247515291755,-0.122324191034,-1.34468075608e-06,9.3090763092,-0.002153,0.020744,0.075806,-0.013337,0.103464,0.093086
1288,5130000000.0,0.00701675335313,0.000189857441001,18.1096916468,0.999999301922,-1.99942470758e-05,0.00115502328851,-0.000248349610347,-0.123048759997,-8.86917122855e-07,9.34588432312,-0.002153,0.020744,0.075806,-0.013337,0.103464,0.093086
1289,5140000000.0,0.00725953171334,0.000189018202946,18.2032241809,0.999999277741,-1.94652338698e-05,0.00117606937009,-0.000246978916354,-0.123176038265,2.00271598416e-07,9.35261917114,-0.002153,0.020744,0.075806,-0.013337,0.103464,0.093086
1290,5150000000.0,0.00750609524128,0.000189323443916,18.2971258464,0.999999253425,-1.89385540287e-05,0.00119641485228,-0.000247754015884,-0.123905226588,1.80244444259e-06,9.38928508759,-0.002153,0.020744,0.075806,-0.013337,0.103464,0.093086
1291,5160000000.0,0.00775197840439,0.000188674894158,18.3910928351,0.999999230811,-1.84090409127e-05,0.00121544380076,-0.000246442992849,-0.124011218548,-3.17573540265e-06,9.39606571198,-0.002153,0.020744,0.075806,-0.013337,0.103464,0.093086
1292,5170000000.0,0.00800548109028,0.00018898001872,18.4854270877,0.999999208473,-1.78818283575e-05,0.00123353860002,-0.000247218175045,-0.124650150537,2.49862659807e-06,9.43259334564,-0.002153,0.020744,0.075806,-0.013337,0.103464,0.093086
1293,5180000000.0,0.00825828851283,0.000188331585377,18.5798280939,0.999999187689,-1.73517568058e-05,0.00125054001154,-0.000245907243389,-0.124787978828,-2.75611864886e-06,9.43941783905,-0.002153,0.020744,0.075806,-0.013337,0.103464,0.093086
1294,5190000000.0,0.00851491586626,0.000188827514648,18.6745948938,0.999999167298,-1.68240561307e-05,0.0012665973889,-0.000246682497658,-0.12539178133,2.39372252331e-06,9.47580337524,-0.002153,0.020744,0.075806,-0.013337,0.103464,0.093086
1295,5200000000.0,0.00877466244675,0.000187911908139,18.7694284869,0.999999148626,-1.62936441008e-05,0.00128147868013,-0.000245550437137,-0.125481471419,-4.76837159091e-07,9.48267650604,-0.002153,0.020744,0.075806,-0.013337,0.103464,0.093086
1296,5210000000.0,0.00903061487588,0.000188407837417,18.864626364,0.999999130297,-1.57652500965e-05,0.00129559590073,-0.000246146954492,-0.126097157598,-9.72747786321e-07,9.51891803741,-0.002153,0.020744,0.075806,-0.013337,0.103464,0.093086
1297,5220000000.0,0.0092896815659,0.000187530531544,18.9598915111,0.999999115059,-1.49677584115e-05,0.00130752632697,-0.000245015318384,-0.125894621015,-1.6117095365e-06,9.5258436203,-0.002153,0.020744,0.075806,-0.013337,0.103464,0.093086
1298,5230000000.0,0.00954877852728,0.000188102712855,19.0555200282,0.999999101803,-1.39058070825e-05,0.00131751448029,-0.000245672219153,-0.12615288794,-1.0681152407e-06,9.56194591522,-0.002153,0.020744,0.075806,-0.013337,0.103464,0.093086
1299,5240000000.0,0.00980336076874,0.000187187106345,19.1512157359,0.999999091134,-1.31072442747e-05,0.00132582727663,-0.000244421474985,-0.126032650471,-1.27792350302e-06,9.56891727448,-0.002153,0.020744,0.075806,-0.013337,0.103464,0.093086
1300,5250000000.0,0.0100618026705,0.000187683035616,19.2472734229,0.999999081918,-1.20447513166e-05,0.00133261651989,-0.000245257269539,-0.126344099641,-1.16348269508e-06,9.60487651825,-0.002153,0.020744,0.075806,-0.013337,0.103464,0.093086
1301,5260000000.0,0.0103195344104,0.000186767545529,19.3433992939,0.999999074896,-1.09790079377e-05,0.00133813501657,-0.000243887713011,-0.126284644008,-1.80244444614e-06,9.61189460754,-0.002153,0.020744,0.075806,-0.013337,0.103464,0.093086
1302,5270000000.0,0.0105811456751,0.000187377911068,19.4398852369,0.999999068902,-1.01822336315e-05,0.00134246090197,-0.000244723202023,-0.126631423831,-2.13623047962e-06,9.6477098465,-0.002153,0.020744,0.075806,-0.013337,0.103464,0.093086
1303,5280000000.0,0.0108344128312,0.000186538673006,19.5364397613,0.999999064709,-9.38226794089e-06,0.00134583541578,-0.000243353343661,-0.126614660025,-1.07765197566e-06,9.65477657318,-0.002153,0.020744,0.075806,-0.013337,0.103464,0.093086
1304,5290000000.0,0.0110877599203,0.000187110854309,19.6333528874,0.999999061174,-8.58504812601e-06,0.00134831373397,-0.000244188861584,-0.126991674304,4.76837156427e-07,9.69044685364,-0.002153,0.020744,0.075806,-0.013337,0.103464,0.093086
1305,5300000000.0,0.0113480109297,0.000186233432032,19.7303357075,0.999999059112,-7.78460818435e-06,0.00135010491895,-0.000242759419896,-0.127010554075,7.82012930856e-07,9.69756126404,-0.002153,0.020744,0.075806,-0.013337,0.103464,0.093086
1306,5310000000.0,0.01160836422,0.000186729361307,19.8276749838,0.999999057423,-7.25337131358e-06,0.0013512080294,-0.000243594594946,-0.12740278244,4.67300393936e-07,9.73308849335,-0.002153,0.020744,0.075806,-0.013337,0.103464,0.093086
1307,5320000000.0,0.0118679825176,0.000185852055438,19.9250848281,0.999999056933,-6.45271976984e-06,0.00135182056136,-0.000242224755043,-0.127443373203,2.07901007165e-06,9.74025154114,-0.002153,0.020744,0.075806,-0.013337,0.103464,0.093086
1308,5330000000.0,0.0121315349679,0.000186347984709,20.0228494995,0.999999056933,-6.45271976984e-06,0.00135182056136,-0.000242224755043,-0.127850458026,1.05857850397e-06,9.77563285828,-0.002153,0.020744,0.075806,-0.013337,0.103464,0.093086
1309,5340000000.0,0.0123867209617,0.000185470562428,20.1206848979,0.999999057236,-5.38670176298e-06,0.00135169650553,-0.000241689760456,-0.127908274531,1.93595883324e-06,9.78284549713,-0.002153,0.020744,0.075806,-0.013337,0.103464,0.093086
1310,5350000000.0,0.0126458485575,0.000185966491699,20.2188744082,0.999999057236,-5.38670176298e-06,0.00135169650553,-0.000241689760456,-0.128322958946,7.82012930856e-07,9.81808280945,-0.002153,0.020744,0.075806,-0.013337,0.103464,0.093086
1311,5360000000.0,0.0129118651752,0.000185127253644,20.3171350428,0.99999905926,-4.58692519173e-06,0.00135026538343,-0.000241333212586,-0.128391429782,8.67843594321e-07,9.82534503937,-0.002153,0.020744,0.075806,-0.013337,0.103464,0.093086
1312,5370000000.0,0.0131742117957,0.00018558499869,20.4157480409,0.999999060585,-4.32122932154e-06,0.00134916676865,-0.000241989239942,-0.128810063004,-6.67572011004e-07,9.86043643951,-0.002153,0.020744,0.075806,-0.013337,0.103464,0.093086
1313,5380000000.0,0.0134358159743,0.000184783944864,20.5144323223,0.999999062508,-3.78669768147e-06,0.0013479557311,-0.000240797864823,-0.1288921386,-9.63211052252e-07,9.86774921417,-0.002153,0.020744,0.075806,-0.013337,0.103464,0.093086
1314,5390000000.0,0.0136975745785,0.000185241689902,20.6134680534,0.999999064209,-3.52085503363e-06,0.00134658767901,-0.000241394269653,-0.129323810339,-1.16348269419e-06,9.9026966095,-0.002153,0.020744,0.075806,-0.013337,0.103464,0.093086
1315,5400000000.0,0.0138937295059,0.000184402451847,20.7125758228,0.999999110817,2.41337075302e-06,0.00131172748204,-0.000240269686964,-0.120620079339,-7.2479247315e-07,9.91016769409,-0.002153,0.020744,0.075806,-0.013337,0.103464,0.093086
1316,5410000000.0,0.0140099618748,0.00018482201267,20.8120315851,0.999999198069,1.27272160281e-05,0.00124325268922,-0.000240878365469,-0.111807689071,-9.25064059132e-07,9.94487190247,-0.002153,0.020744,0.075806,-0.013337,0.103464,0.093086
1317,5420000000.0,0.0141292489107,0.000183944706801,20.9115603393,0.999999279205,2.01466248208e-05,0.00117630888962,-0.000239753727105,-0.111577406526,-1.35421749015e-06,9.95237922668,-0.002153,0.020744,0.075806,-0.013337,0.103464,0.093086
1318,5430000000.0,0.0142449081618,0.000184440636072,21.0114374041,0.999999355672,2.57462727284e-05,0.0011091537894,-0.000240354608601,-0.111149519682,-2.67982477631e-06,9.98702907562,-0.002153,0.020744,0.075806,-0.013337,0.103464,0.093086
1319,5440000000.0,0.0143521786086,0.000183639465831,21.1113873416,0.999999426492,2.96779668765e-05,0.00104350652189,-0.000239224526243,-0.110837198794,-1.65939332142e-06,9.99448680878,-0.002153,0.020744,0.075806,-0.013337,0.103464,0.093086
1320,5450000000.0,0.0144520216788,0.000184135395102,21.2116841195,0.99999949154,3.25555362721e-05,0.000978921591139,-0.000239940664287,-0.110556028783,-1.67846678956e-06,10.0290002823,-0.002153,0.020744,0.075806,-0.013337,0.103464,0.093086
1321,5460000000.0,0.0145549169328,0.000183334341269,21.3120541277,0.999999550858,3.43787130677e-05,0.000916586096551,-0.000238688586151,-0.110339589417,-1.03950503849e-06,10.0365171432,-0.002153,0.020744,0.075806,-0.013337,0.103464,0.093086
1322,5470000000.0,0.0146465852182,0.000183792086318,21.4127695063,0.999999604301,3.5610250565e-05,0.000856047264711,-0.000239402816016,-0.110177703202,-2.21252435129e-06,10.0708856583,-0.002153,0.020744,0.075806,-0.013337,0.103464,0.093086
1323,5480000000.0,0.0147336642913,0.000183067284524,21.5135592277,0.999999652481,3.61714113307e-05,0.000798149977248,-0.000238089879326,-0.110032424331,-1.91688536866e-06,10.0784540176,-0.002153,0.020744,0.075806,-0.013337,0.103464,0.093086
1324,5490000000.0,0.0148133532341,0.00018352502957,21.6146922135,0.999999695132,3.63968305225e-05,0.000742533541943,-0.000238862883917,-0.109972313046,-7.62939453836e-08,10.1126756668,-0.002153,0.020744,0.075806,-0.013337,0.103464,0.093086
1325,5500000000.0,0.014896076979,0.000182723975737,21.7159000984,0.999999733241,3.61951112349e-05,0.000689767176483,-0.000237549520198,-0.109883457422,3.24249269212e-07,10.1202964783,-0.002153,0.020744,0.075806,-0.013337,0.103464,0.093086
1326,5510000000.0,0.0149676060355,0.000183143536557,21.8174502543,0.999999766429,3.58133213124e-05,0.000639557303065,-0.000238381915612,-0.109909690917,-1.33514402201e-06,10.1543684006,-0.002153,0.020744,0.075806,-0.013337,0.103464,0.093086
1327,5520000000.0,0.0150421661695,0.000182380666956,21.919075667,0.999999795613,3.5082183516e-05,0.000592693179499,-0.000237187697412,-0.10997967422,-4.4822692935e-07,10.1620426178,-0.002153,0.020744,0.075806,-0.013337,0.103464,0.093086
