frame,timestamp,x,y,z,qw,qx,qy,qz,v_x (m/s),v_y (m/s),v_z (m/s),w_x (rad/s),w_y (rad/s),w_z (rad/s),acc x (m/s^2),acc y (m/s^2),acc z (m/s^2),roll,pitch,yaw
1464,33578702882,-23.800546646118164,61.24238586425781,0.09412002563476562,0.9999864410163584,0.0,-0.0,-0.005207473805720072,0.0,-0.0,-0.2939999997615814,0.0,-0.0,-0.0,0.0,-0.0,-9.800000190734863,0.0,-0.0,-0.01041499468373021
1465,33588702882,-23.800546646118164,61.24238586425781,0.0902000442147255,0.9999864410163584,0.0,-0.0,-0.005207473805720072,0.0,-0.0,-0.3919999897480011,0.0,-0.0,-0.0,0.0,-0.0,-9.799999237060547,0.0,-0.0,-0.01041499468373021
1466,33598702881,-23.800546646118164,61.24238586425781,0.0853000208735466,0.9999864410163584,0.0,-0.0,-0.005207473805720072,0.0,-0.0,-0.4899999797344208,0.0,-0.0,-0.0,0.0,-0.0,-9.799999237060547,0.0,-0.0,-0.01041499468373021
1467,33608702881,-23.800546646118164,61.24238586425781,0.07942001521587372,0.9999864410163584,0.0,-0.0,-0.005207473805720072,0.0,-0.0,-0.5879999995231628,0.0,-0.0,-0.0,0.0,-0.0,-9.800002098083496,0.0,-0.0,-0.01041499468373021
1468,33618702881,-23.800546646118164,61.24238586425781,0.07292083650827408,0.9999864410163584,0.0,-0.0,-0.005207473805720072,0.0,-0.0,-0.6499363780021667,-0.00044292787788435817,0.00018683887901715934,1.7491216808274146e-12,0.0,-0.0,-6.193637847900391,0.0,-0.0,-0.01041499468373021
1469,33628702881,-23.800546646118164,61.24238586425781,0.06700301915407181,0.9999864410163584,0.0,-0.0,-0.005207473805720072,-1.0590547105948644e-07,-2.2280735265667317e-06,-0.591778039932251,-0.00021339982049539685,0.00013214298815000802,7.050624528659455e-09,-1.0590547390165739e-05,-0.00022280735720414668,5.815834045410156,0.0,-0.0,-0.01041499468373021
1470,33638702881,-23.800546646118164,61.24238586425781,0.06157264485955238,0.9999864410163584,0.0,-0.0,-0.005207473805720072,-8.158038866667994e-08,-1.6871613297553267e-06,-0.5430380702018738,-0.00013878810568712652,9.76341325440444e-05,-6.086086301593241e-09,2.4325081540155225e-06,5.40912187716458e-05,4.873996734619141,0.0,-0.0,-0.01041499468373021
1471,33648702880,-23.800546646118164,61.24238586425781,0.05658992752432823,0.9999864410163584,0.0,-0.0,-0.005207473805720072,-8.267785034377084e-08,-1.2283089745324105e-06,-0.49827253818511963,-0.00014844961697235703,0.00010240588017040864,-7.208138530501174e-10,-1.0974616770909051e-07,4.5885237341281027e-05,4.476552963256836,0.0,-0.0,-0.01041499468373021
1472,33658702880,-23.800546646118164,61.24238586425781,0.05201831832528114,0.9999864410163584,0.0,-0.0,-0.005207473805720072,-5.606609221331382e-08,-1.3413051647148677e-06,-0.45716163516044617,-0.0001549194857943803,6.57591299386695e-05,-4.224406158215288e-09,2.661175813045702e-06,-1.129961856349837e-05,4.111090183258057,0.0,-0.0,-0.01041499468373021
1473,33668702880,-23.800546646118164,61.24238586425781,0.04782421141862869,0.9999864410163584,0.0,-0.0,-0.005207473805720072,-7.199930962542567e-08,-1.0381281754234806e-06,-0.4194090962409973,-0.00012380846601445228,8.779278869042173e-05,-6.49548748121731e-11,-1.593321712789475e-06,3.0317698474391364e-05,3.7752537727355957,0.0,-0.0,-0.01041499468373021
1474,33678702880,-23.800546646118164,61.24238586425781,0.04397674277424812,0.9999864410163584,0.0,-0.0,-0.005207473805720072,-3.928982295064998e-08,-7.898712510723271e-07,-0.38474470376968384,-4.078710844623856e-05,4.8532107030041516e-05,-7.156164993915581e-09,3.2709485822124407e-06,2.4825692889862694e-05,3.4664392471313477,0.0,-0.0,-0.01041499468373021
1475,33688702879,-23.800546646118164,61.24238586425781,0.04044754058122635,0.9999864410163584,0.0,-0.0,-0.005207473805720072,-1.3921900965385703e-08,-1.019425326376222e-06,-0.35291948914527893,-4.36855734733399e-05,8.721744961803779e-06,-6.419996756434898e-10,2.536792180762859e-06,-2.2955407985136844e-05,3.182521343231201,0.0,-0.0,-0.01041499468373021
1476,33698702879,-23.800546646118164,61.24238586425781,0.03721050173044205,0.9999864410163584,0.0,-0.0,-0.005207473805720072,-2.742442717362792e-08,-5.930476163484855e-07,-0.3237023949623108,-8.650344534544274e-05,2.9845999961253256e-05,-2.0955210899842314e-09,-1.350252659904072e-06,4.263777009327896e-05,2.9217095375061035,0.0,-0.0,-0.01041499468373021
1477,33708702879,-23.800546646118164,61.24238586425781,0.034241676330566406,0.9999864410163584,0.0,-0.0,-0.005207473805720072,-2.6631786553821257e-08,-6.03267949372821e-07,-0.29688146710395813,-8.791442814981565e-05,3.0129087463137694e-05,9.852761939654897e-10,7.926406198066616e-08,-1.022033302433556e-06,2.6820926666259766,0.0,-0.0,-0.01041499468373021
1478,33718702879,-23.800546646118164,61.24238586425781,0.031519051641225815,0.9999864410163584,0.0,-0.0,-0.005207473805720072,-7.808318436275385e-09,-2.375480931959828e-07,-0.2722642123699188,-5.342355871107429e-05,9.881189726002049e-06,-6.667914664859609e-09,1.8823467371476e-06,3.657198612927459e-05,2.4617254734039307,0.0,-0.0,-0.01041499468373021
1479,33728702879,-23.800546646118164,61.24238586425781,0.029022330418229103,0.9999864410163584,0.0,-0.0,-0.005207473805720072,-2.56884362670462e-08,-3.9377113125738106e-07,-0.2496708184480667,-1.3951638493381324e-06,2.9424158128676936e-05,2.2256836373912847e-09,-1.7880119003166328e-06,-1.5622303180862218e-05,2.2593393325805664,0.0,-0.0,-0.01041499468373021
1480,33738702878,-23.800546646118164,61.24238586425781,0.026732977479696274,0.9999864410163584,0.0,-0.0,-0.005207473805720072,8.175924826048231e-09,-1.4974915529819555e-07,-0.22893542051315308,-2.6365310077380855e-06,-1.0716315046011005e-05,-5.445114137359042e-09,3.3864359920698917e-06,2.440219759591855e-05,2.0735397338867188,0.0,-0.0,-0.01041499468373021
1481,33748702878,-23.800546646118164,61.24238586425781,0.024633903056383133,0.9999864410163584,0.0,-0.0,-0.005207473805720072,7.048307715251667e-09,-1.260954576309814e-07,-0.2099071443080902,-1.6482401861139806e-06,-1.1807245755335316e-05,-1.1950742617727883e-09,-1.1276171107965638e-07,2.3653697098779958e-06,1.9028276205062866,0.0,-0.0,-0.01041499468373021
1482,33758702878,-23.800546646118164,61.24238586425781,0.022709425538778305,0.9999864410163584,0.0,-0.0,-0.005207473805720072,-2.4151528776883424e-08,-2.218306320855845e-07,-0.19244834780693054,1.028715587381157e-06,2.8107784601161256e-05,5.947991432719846e-09,-3.1199836030282313e-06,-9.573517672833987e-06,1.7458796501159668,0.0,-0.0,-0.01041499468373021
1483,33768702878,-23.800546646118164,61.24238586425781,0.020945128053426743,0.9999864410163584,0.0,-0.0,-0.005207473805720072,-4.351480509257044e-09,-1.630790613660338e-08,-0.17642852663993835,-4.970434383722022e-05,8.070443982433062e-06,-2.6515574180763224e-09,1.9800047539320076e-06,2.055227196251508e-05,1.6019821166992188,0.0,-0.0,-0.01041499468373021
1484,33778702877,-23.800546646118164,61.24238586425781,0.019327811896800995,0.9999864410163584,0.0,-0.0,-0.005207473805720072,-1.9918319438261278e-08,-3.462357511807568e-08,-0.16173233091831207,3.190813004039228e-06,2.6527579393587075e-05,3.413084814773981e-10,-1.5566838555969298e-06,-1.831566919463512e-06,1.4696195125579834,0.0,-0.0,-0.01041499468373021
1485,33788702877,-23.800546646118164,61.24238586425781,0.017845306545495987,0.9999864410163584,0.0,-0.0,-0.005207473805720072,-2.0696779845508217e-09,7.225104781127811e-08,-0.14825032651424408,4.1894516471074894e-05,5.220606453804066e-06,-4.949108234342248e-09,1.7848641391537967e-06,1.068746223609196e-05,1.3482004404067993,0.0,-0.0,-0.01041499468373021
1486,33798702877,-23.800546646118164,61.24238586425781,0.016486473381519318,0.9999864410163584,0.0,-0.0,-0.005207473805720072,-5.223843579926779e-09,-2.144813038285065e-07,-0.1358819454908371,4.4866144889965653e-05,3.952280621888349e-06,3.288766592390857e-09,-3.154165710839152e-07,-2.867323564714752e-05,1.2368381023406982,0.0,-0.0,-0.01041499468373021
1487,33808702877,-23.800546646118164,61.24238586425781,0.015241088345646858,0.9999864410163584,0.0,-0.0,-0.005207473805720072,-2.805967902475004e-09,-3.6460210850464136e-08,-0.1245381310582161,-3.090599420829676e-05,3.867647592414869e-06,-8.19705248122915e-10,2.4178757485060487e-07,1.7802109141484834e-05,1.1343814134597778,0.0,-0.0,-0.01041499468373021
1488,33818702877,-23.800546646118164,61.24238586425781,0.014099731110036373,0.9999864410163584,0.0,-0.0,-0.005207473805720072,2.811366783816993e-08,-8.61013802477828e-08,-0.1141342893242836,-4.345309207565151e-05,-3.7802841688971967e-05,-5.0182231703388425e-09,3.0919636628823355e-06,-4.964117124472978e-06,1.0403841733932495,0.0,-0.0,-0.01041499468373021
1489,33828702876,-23.800546646118164,61.24238586425781,0.013053817674517632,0.9999864410163584,0.0,-0.0,-0.005207473805720072,-1.7622614478796095e-08,-4.729375557843696e-09,-0.10459193587303162,8.724347026145551e-06,2.056898665614426e-05,3.288461281059085e-09,-4.573628302750876e-06,8.137200893543195e-06,0.954235315322876,0.0,-0.0,-0.01041499468373021
1490,33838702876,-23.800546646118164,61.24238586425781,0.01209537498652935,0.9999864410163584,0.0,-0.0,-0.005207473805720072,3.4984395935744317e-10,-6.019207887675293e-08,-0.09584266692399979,-4.066432666149922e-05,4.942025952914264e-07,1.0829820373814414e-09,1.7972458863368956e-06,-5.546270131162601e-06,0.8749269247055054,0.0,-0.0,-0.01041499468373021
1491,33848702876,-23.800546646118164,61.24238586425781,0.011217193678021431,0.9999864410163584,0.0,-0.0,-0.005207473805720072,-1.3290661016185368e-08,8.488692060382164e-08,-0.08781852573156357,1.1299527614028193e-05,1.8743734472081997e-05,4.283133570037734e-10,-1.3640504903378314e-06,1.4507900232274551e-05,0.8024141192436218,0.0,-0.0,-0.01041499468373021
1492,33858702876,-23.800546646118164,61.24238586425781,0.010412558913230896,0.9999864410163584,0.0,-0.0,-0.005207473805720072,3.089368050268604e-08,-1.955240946927006e-07,-0.08046261966228485,5.101487477077171e-05,-4.29420470027253e-05,-2.5908097889271176e-09,4.418433945829747e-06,-2.804110226861667e-05,0.7355905771255493,0.0,-0.0,-0.01041499468373021
1493,33868702875,-23.800546646118164,61.24238586425781,0.009675368666648865,0.9999864410163584,0.0,-0.0,-0.005207473805720072,4.112734874883728e-10,8.464802192520438e-09,-0.07371748983860016,-3.7565358070423827e-05,-2.9360910502873594e-06,2.544129573678333e-09,-3.048240841962979e-06,2.039888931903988e-05,0.6745129823684692,0.0,-0.0,-0.01041499468373021
1494,33878702875,-23.800546646118164,61.24238586425781,0.009000015445053577,0.9999864410163584,0.0,-0.0,-0.005207473805720072,-1.2759691969677078e-08,4.265388753310617e-08,-0.06753383576869965,1.4818649106018711e-05,1.7068463421310298e-05,1.024520190906486e-10,-1.317096575803589e-06,3.4189085909019923e-06,0.6183654069900513,0.0,-0.0,-0.01041499468373021
1495,33888702875,-23.800546646118164,61.24238586425781,0.008381347171962261,0.9999864410163584,0.0,-0.0,-0.005207473805720072,1.7315555211894207e-08,-8.041902788136213e-08,-0.06186594441533089,1.6816589777590707e-05,-2.309964293090161e-05,-7.889142672468097e-10,3.007524810527684e-06,-1.2307290489843581e-05,0.5667891502380371,0.0,-0.0,-0.01041499468373021
1496,33898702875,-23.800546646118164,61.24238586425781,0.007814674638211727,0.9999864410163584,0.0,-0.0,-0.005207473805720072,-1.2136915472638066e-08,1.0246388626455882e-07,-0.056669194251298904,1.772876021277625e-05,1.5802183042978868e-05,2.4895774330957465e-09,-2.945247160823783e-06,1.8288292267243378e-05,0.5196750164031982,0.0,-0.0,-0.01041499468373021
1497,33908702875,-23.800546646118164,61.24238586425781,0.0072956085205078125,0.9999864410163584,0.0,-0.0,-0.005207473805720072,1.9459891476003577e-08,-5.2499540714734394e-08,-0.051906976848840714,1.982775575015694e-05,-2.5714720322866924e-05,-8.527512029843365e-10,3.1596805456501897e-06,-1.5496343621634878e-05,0.4762217402458191,0.0,-0.0,-0.01041499468373021
1498,33918702874,-23.800546646118164,61.24238586425781,0.006820182781666517,0.9999864410163584,0.0,-0.0,-0.005207473805720072,2.312275482196924e-09,-5.879631359562154e-08,-0.04754270613193512,-3.003523488587234e-05,-5.289843102218583e-06,3.787526736687141e-09,-1.714761651783192e-06,-6.296772880887147e-07,0.4364270567893982,0.0,-0.0,-0.01041499468373021
1499,33928702874,-23.800546646118164,61.24238586425781,0.006384773179888725,0.9999864410163584,0.0,-0.0,-0.005207473805720072,-1.229577684114247e-08,-1.0374635905918694e-07,-0.04354188218712807,2.2062673451728188e-05,1.4229416592570487e-05,2.530049281190827e-09,-1.4608052651965409e-06,-4.495004759519361e-06,0.40008240938186646,0.0,-0.0,-0.01041499468373021
1500,33938702874,-23.800546646118164,61.24238586425781,0.005986022762954235,0.9999864410163584,0.0,-0.0,-0.005207473805720072,1.8887856612082032e-08,-1.48240914654707e-07,-0.03987563028931618,2.2102214643382467e-05,-2.638130717969034e-05,-1.9667341089046886e-09,3.1183631108433474e-06,-4.449455445865169e-06,0.36662518978118896,0.0,-0.0,-0.01041499468373021
1501,33948702874,-23.800546646118164,61.24238586425781,0.00562084186822176,0.9999864410163584,0.0,-0.0,-0.005207473805720072,-1.1441959379965283e-08,3.107043156092004e-08,-0.03651659935712814,2.2177360733621754e-05,1.3633673916046973e-05,1.787722858637153e-09,-3.0329815672303084e-06,1.793113369785715e-05,0.3359031081199646,0.0,-0.0,-0.01041499468373021
1502,33958702873,-23.800546646118164,61.24238586425781,0.005286483559757471,0.9999864410163584,0.0,-0.0,-0.005207473805720072,2.5255906255239324e-09,-3.085698949689686e-07,-0.03343768045306206,-2.6879730285145342e-05,-6.446559837058885e-06,2.742604809924387e-09,1.3967550103188842e-06,-3.396403189981356e-05,0.3078919053077698,0.0,-0.0,-0.01041499468373021
1503,33968702873,-23.800546646118164,61.24238586425781,0.004980315919965506,0.9999864410163584,0.0,-0.0,-0.005207473805720072,3.550196359114466e-09,-1.183860547371296e-07,-0.030616359785199165,-2.785989454423543e-05,-6.493499768112088e-06,8.181355592995487e-11,1.0246057513541018e-07,1.9018383682123385e-05,0.2821320593357086,0.0,-0.0,-0.01041499468373021
1504,33978702873,-23.800546646118164,61.24238586425781,0.004699973855167627,0.9999864410163584,0.0,-0.0,-0.005207473805720072,-1.0506440162316721e-08,-1.0791528559650487e-08,-0.028032369911670685,2.3066351786837913e-05,1.3088181731291115e-05,-7.990729744555836e-10,-1.4056636246095877e-06,1.0759452379716095e-05,0.25839897990226746,0.0,-0.0,-0.01041499468373021
1505,33988702873,-23.800546646118164,61.24238586425781,0.004443320911377668,0.9999864410163584,0.0,-0.0,-0.005207473805720072,4.4725116943311605e-09,-1.2731365472973266e-07,-0.025666169822216034,-2.7105166736873798e-05,-6.525020580738783e-06,-7.373797406007299e-11,1.4978951412558672e-06,-1.1652212378976401e-05,0.2366200089454651,0.0,-0.0,-0.01041499468373021
1506,33998702873,-23.800546646118164,61.24238586425781,0.004208335652947426,0.9999864410163584,0.0,-0.0,-0.005207473805720072,-1.1368294750013774e-08,-9.374949883067529e-08,-0.023497648537158966,2.4431723431916907e-05,1.3103793207847048e-05,2.3193220677342197e-09,-1.5840805644984357e-06,3.3564156183274463e-06,0.2168521285057068,0.0,-0.0,-0.01041499468373021
1507,34008702872,-23.800546646118164,61.24238586425781,0.003993224818259478,0.9999864410163584,0.0,-0.0,-0.005207473805720072,-1.0618409262974637e-08,-1.295044000926282e-07,-0.021510815247893333,2.4926810510805808e-05,1.2939367479702923e-05,1.1982747016858752e-09,7.498854870391369e-08,-3.5754901546170004e-06,0.19868332147598267,0.0,-0.0,-0.01041499468373021
1508,34018702872,-23.800546646118164,61.24238586425781,0.0037963103968650103,0.9999864410163584,0.0,-0.0,-0.005207473805720072,2.3107542546085824e-09,-4.047844299748249e-07,-0.019691186025738716,-2.5699955585878342e-05,-7.481903594452888e-06,1.8472470220132209e-09,1.2929162949149031e-06,-2.7528003556653857e-05,0.18196292221546173,0.0,-0.0,-0.01041499468373021
1509,34028702872,-23.800546646118164,61.24238586425781,0.003616065951064229,0.9999864410163584,0.0,-0.0,-0.005207473805720072,1.967792861989892e-08,-1.250353847126462e-07,-0.018023833632469177,-7.895445014582947e-05,-2.7530746592674404e-05,-1.975565044887162e-09,1.7367174223181792e-06,2.7974903787253425e-05,0.1667352318763733,0.0,-0.0,-0.01041499468373021
1510,34038702872,-23.800546646118164,61.24238586425781,0.0034510802943259478,0.9999864410163584,0.0,-0.0,-0.005207473805720072,-1.090519585744687e-08,-6.484024339670214e-08,-0.016497468575835228,2.2661317416350357e-05,1.1416423149057664e-05,-4.6340678690193204e-12,-3.058312358916737e-06,6.019514330546372e-06,0.15263649821281433,0.0,-0.0,-0.01041499468373021
1511,34048702871,-23.800546646118164,61.24238586425781,0.00330009451135993,0.9999864410163584,0.0,-0.0,-0.005207473805720072,-6.7100893730298594e-09,1.3781003360691102e-07,-0.015099982731044292,2.345065149711445e-05,1.1306094165774994e-05,-1.1568010993556754e-09,4.195106555471284e-07,2.0265028069843538e-05,0.13974858820438385,0.0,-0.0,-0.01041499468373021
1512,34058702871,-23.800546646118164,61.24238586425781,0.0031618881039321423,0.9999864410163584,0.0,-0.0,-0.005207473805720072,-6.174679434423069e-09,1.7123733186963364e-07,-0.013819627463817596,2.5315159291494638e-05,1.110223001887789e-05,-2.23753196526566e-10,5.354099386067901e-08,3.3427297694288427e-06,0.1280355304479599,0.0,-0.0,-0.01041499468373021
1513,34068702871,-23.800546646118164,61.24238586425781,0.003035430796444416,0.9999864410163584,0.0,-0.0,-0.005207473805720072,-7.136435442589573e-09,9.363886022129009e-08,-0.0126472944393754,2.7219664843869396e-05,1.1275331416982226e-05,-4.2323558546719653e-10,-9.617559726393665e-08,-7.759846994304098e-06,0.11723330616950989,0.0,-0.0,-0.01041499468373021
1514,34078702871,-23.800546646118164,61.24238586425781,0.002919693011790514,0.9999864410163584,0.0,-0.0,-0.005207473805720072,2.2037642821715053e-08,-8.516008165315725e-08,-0.011573800817131996,-7.379300950560719e-05,-2.8866259526694193e-05,-1.3744416715866237e-09,2.917407755376189e-06,-1.7879894585348666e-05,0.10734936594963074,0.0,-0.0,-0.01041499468373021
1515,34088702871,-23.800546646118164,61.24238586425781,0.002813796978443861,0.9999864410163584,0.0,-0.0,-0.005207473805720072,6.8194161428891675e-09,6.57383694147029e-08,-0.0105905057862401,-2.328393020434305e-05,-9.878068340185564e-06,-1.1679123224084265e-09,-1.521822696304298e-06,1.5089844055182766e-05,0.09832949936389923,0.0,-0.0,-0.01041499468373021
1516,34098702870,-23.800546646118164,61.24238586425781,0.0027168653905391693,0.9999864410163584,0.0,-0.0,-0.005207473805720072,-6.375835859273593e-09,1.3455378677917906e-07,-0.00969135295599699,2.8521122658276e-05,9.293127732235007e-06,1.1812579560344094e-11,-1.3195251540309982e-06,6.881541594339069e-06,0.08991528302431107,0.0,-0.0,-0.01041499468373021
1517,34108702870,-23.800546646118164,61.24238586425781,0.002628173679113388,0.9999864410163584,0.0,-0.0,-0.005207473805720072,9.838940329132129e-09,1.074101376730141e-07,-0.008867616765201092,-2.1532559912884608e-05,-1.0725472748163156e-05,-2.3862933851148682e-09,1.6214777360801236e-06,-2.7143648821947863e-06,0.08237361907958984,0.0,-0.0,-0.01041499468373021
1518,34118702870,-23.800546646118164,61.24238586425781,0.002547035226598382,0.9999864410163584,0.0,-0.0,-0.005207473805720072,-7.152294756451738e-09,-2.4430823586385486e-08,-0.008113260380923748,3.122278212686069e-05,8.110243470582645e-06,2.938156606901998e-09,-1.6991234588203952e-06,-1.3184096133045387e-05,0.07543563842773438,0.0,-0.0,-0.01041499468373021
1519,34128702870,-23.800546646118164,61.24238586425781,0.0024728011339902878,0.9999864410163584,0.0,-0.0,-0.005207473805720072,1.0102252367971687e-08,1.0144626116925792e-07,-0.007422056049108505,-2.0024566765641794e-05,-1.125056587625295e-05,-2.976415336419791e-09,1.7254545809919364e-06,1.2587707715283614e-05,0.06912043690681458,0.0,-0.0,-0.01041499468373021
1520,34138702869,-23.800546646118164,61.24238586425781,0.0024048995692282915,0.9999864410163584,0.0,-0.0,-0.005207473805720072,-5.651858092647899e-09,1.6131266988850257e-07,-0.006789665203541517,3.213765739928931e-05,8.643135515740141e-06,2.768943130337931e-10,-1.5754110336274607e-06,5.986640644550789e-06,0.06323908269405365,0.0,-0.0,-0.01041499468373021
1521,34148702869,-23.800546646118164,61.24238586425781,0.0023427961859852076,0.9999864410163584,0.0,-0.0,-0.005207473805720072,9.284301327738831e-09,5.0306894650020695e-08,-0.006211747881025076,-1.7060167010640725e-05,-1.087006057787221e-05,6.353269021985852e-10,1.4936158549971879e-06,-1.1100577467004769e-05,0.057791732251644135,0.0,-0.0,-0.01041499468373021
1522,34158702869,-23.800546646118164,61.24238586425781,0.0022859573364257812,0.9999864410163584,0.0,-0.0,-0.005207473805720072,-5.893921350974551e-09,1.7149874054211978e-07,-0.005683002527803183,3.4569289709907025e-05,9.109146958508063e-06,6.192380636038664e-11,-1.5178222838585498e-06,1.2119184248149395e-05,0.05287453532218933,0.0,-0.0,-0.01041499468373021
1523,34168702869,-23.800546646118164,61.24238586425781,0.002233962994068861,0.9999864410163584,0.0,-0.0,-0.005207473805720072,8.340061974365653e-09,-2.684265609786962e-08,-0.00519810663536191,-1.4848902537778486e-05,-1.0672411917767022e-05,2.7311580774735944e-10,1.423398316546809e-06,-1.9834140402963385e-05,0.048489589244127274,0.0,-0.0,-0.01041499468373021
1524,34178702869,-23.800546646118164,61.24238586425781,0.002186431782320142,0.9999864410163584,0.0,-0.0,-0.005207473805720072,7.684579195199603e-09,-3.470010501160914e-09,-0.004754247609525919,-1.4572796317224856e-05,-1.0811135325639043e-05,7.239049359952787e-10,-6.5548277916605e-08,2.3372645046038087e-06,0.04438590258359909,0.0,-0.0,-0.01041499468373021
1525,34188702868,-23.800546646118164,61.24238586425781,0.002142944373190403,0.9999864410163584,0.0,-0.0,-0.005207473805720072,7.119980161007788e-09,-9.151979440957803e-08,-0.004348478280007839,-1.4412884411285631e-05,-1.1325521882099565e-05,3.6888628263120893e-10,-5.64599034191815e-08,-8.80497827893123e-06,0.040576934814453125,0.0,-0.0,-0.01041499468373021
1526,34198702868,-23.800546646118164,61.24238586425781,0.0021031571086496115,0.9999864410163584,0.0,-0.0,-0.005207473805720072,8.828878073074975e-09,7.482360331323434e-08,-0.0039771366864442825,-1.554276423121337e-05,-1.1315763003949542e-05,-2.55232812662598e-09,1.7088979120671866e-07,1.6634339772281237e-05,0.03713415935635567,0.0,-0.0,-0.01041499468373021
1527,34208702868,-23.800546646118164,61.24238586425781,0.0020668029319494963,0.9999864410163584,0.0,-0.0,-0.005207473805720072,-6.0700702242399984e-09,9.12052087187476e-08,-0.0036372279282659292,3.5965058486908674e-05,8.152957889251411e-06,-3.7237138372780976e-10,-1.4898947711117216e-06,1.6381604837079067e-06,0.033990874886512756,0.0,-0.0,-0.01041499468373021
1528,34218702868,-23.800546646118164,61.24238586425781,0.0020335388835519552,0.9999864410163584,0.0,-0.0,-0.005207473805720072,-4.5591361796937235e-09,1.4700623296448612e-07,-0.0033267878461629152,3.6549565265886486e-05,8.258006346295588e-06,-1.1084645423764528e-09,1.5109340267827065e-07,5.580102424573852e-06,0.0310440082103014,0.0,-0.0,-0.01041499468373021
1529,34228702867,-23.800546646118164,61.24238586425781,0.00200309744104743,0.9999864410163584,0.0,-0.0,-0.005207473805720072,-6.144205588753948e-09,-1.771874380551708e-08,-0.003042306751012802,3.8174774090293795e-05,8.109311238513328e-06,1.8158596848394382e-09,-1.5850693557695195e-07,-1.647249882807955e-05,0.028448108583688736,0.0,-0.0,-0.01041499468373021
1530,34238702867,-23.800546646118164,61.24238586425781,0.0019752883818000555,0.9999864410163584,0.0,-0.0,-0.005207473805720072,9.80099645886412e-09,6.129594254389303e-08,-0.002782354364171624,-1.2558011803776026e-05,-1.1446331882325467e-05,-9.486481045151152e-11,1.5945201994327363e-06,7.901468052295968e-06,0.02599523961544037,0.0,-0.0,-0.01041499468373021
1531,34248702867,-23.800546646118164,61.24238586425781,0.0019498442998155951,0.9999864410163584,0.0,-0.0,-0.005207473805720072,-7.580552185970646e-09,-7.014786262971029e-08,-0.002544345799833536,-5.01384238305036e-05,8.852934115566313e-06,2.292744882836928e-09,-1.7381548786943313e-06,-1.3144381227903068e-05,0.023800857365131378,0.0,-0.0,-0.01041499468373021
1532,34258702867,-23.800546646118164,61.24238586425781,0.0019265746232122183,0.9999864410163584,0.0,-0.0,-0.005207473805720072,1.0666253658087044e-08,1.4363125444560865e-07,-0.00232695578597486,-1.3366649000090547e-05,-1.1493474630697165e-05,-4.579368884094492e-09,1.8246804529553629e-06,2.1377911252784543e-05,0.02173900231719017,0.0,-0.0,-0.01041499468373021
1533,34268702866,-23.800546646118164,61.24238586425781,0.0019052886636927724,0.9999864410163584,0.0,-0.0,-0.005207473805720072,-5.671679126351137e-09,1.14383190918943e-07,-0.0021267414558678865,3.8708407373633236e-05,7.941865987959318e-06,-9.32888419291622e-11,-1.6337932038368308e-06,-2.9248062674014363e-06,0.020021433010697365,0.0,-0.0,-0.01041499468373021
1534,34278702866,-23.800546646118164,61.24238586425781,0.0018858336843550205,0.9999864410163584,0.0,-0.0,-0.005207473805720072,-5.078021558801993e-09,8.513669769172338e-08,-0.0019445704529061913,4.02313526137732e-05,8.038916348596103e-06,1.8490121656000724e-09,5.93657567549144e-08,-2.9246493795653805e-06,0.018217099830508232,0.0,-0.0,-0.01041499468373021
1535,34288702866,-23.800546646118164,61.24238586425781,0.0018680571811273694,0.9999864410163584,0.0,-0.0,-0.005207473805720072,-5.850808282303888e-09,-3.753309218978984e-09,-0.0017772387946024537,4.118133074371144e-05,7.8690118243685e-06,1.5094148153593778e-09,-7.727867057383264e-08,-8.889000127965119e-06,0.016733165830373764,0.0,-0.0,-0.01041499468373021
1536,34298702866,-23.800546646118164,61.24238586425781,0.0018680571811273694,0.9999864410163584,0.0,-0.0,-0.005207473805720072,0.0,-0.0,0.0,0.0,-0.0,-0.0,5.850808406648866e-07,3.753309272269689e-07,0.17772388458251953,0.0,-0.0,-0.01041499468373021
1537,34308702866,-23.800546646118164,61.24238586425781,0.0018680571811273694,0.9999864410163584,0.0,-0.0,-0.005207473805720072,0.0,-0.0,0.0,0.0,-0.0,-0.0,0.0,-0.0,0.0,0.0,-0.0,-0.01041499468373021
1538,34318702865,-23.800546646118164,61.24238586425781,0.0018680571811273694,0.9999864410163584,0.0,-0.0,-0.005207473805720072,0.0,-0.0,0.0,0.0,-0.0,-0.0,0.0,-0.0,0.0,0.0,-0.0,-0.01041499468373021
1539,34328702865,-23.800546646118164,61.24238586425781,0.0018680571811273694,0.9999864410163584,0.0,-0.0,-0.005207473805720072,0.0,-0.0,0.0,0.0,-0.0,-0.0,0.0,-0.0,0.0,0.0,-0.0,-0.01041499468373021
1540,34338702865,-23.800546646118164,61.24238586425781,0.0018680571811273694,0.9999864410163584,0.0,-0.0,-0.005207473805720072,0.0,-0.0,0.0,0.0,-0.0,-0.0,0.0,-0.0,0.0,0.0,-0.0,-0.01041499468373021
1541,34348702865,-23.800546646118164,61.24238586425781,0.0018680571811273694,0.9999864410163584,0.0,-0.0,-0.005207473805720072,0.0,-0.0,0.0,0.0,-0.0,-0.0,0.0,-0.0,0.0,0.0,-0.0,-0.01041499468373021
1542,34358702864,-23.800546646118164,61.24238586425781,0.0018680571811273694,0.9999864410163584,0.0,-0.0,-0.005207473805720072,0.0,-0.0,0.0,0.0,-0.0,-0.0,0.0,-0.0,0.0,0.0,-0.0,-0.01041499468373021
1543,34368702864,-23.800546646118164,61.24238586425781,0.0018680571811273694,0.9999864410163584,0.0,-0.0,-0.005207473805720072,0.0,-0.0,0.0,0.0,-0.0,-0.0,0.0,-0.0,0.0,0.0,-0.0,-0.01041499468373021
1544,34378702864,-23.800546646118164,61.24238586425781,0.0018680571811273694,0.9999864410163584,0.0,-0.0,-0.005207473805720072,0.0,-0.0,0.0,0.0,-0.0,-0.0,0.0,-0.0,0.0,0.0,-0.0,-0.01041499468373021
1545,34388702864,-23.800546646118164,61.24238586425781,0.0018680571811273694,0.9999864410163584,0.0,-0.0,-0.005207473805720072,0.0,-0.0,0.0,0.0,-0.0,-0.0,0.0,-0.0,0.0,0.0,-0.0,-0.01041499468373021
1546,34398702864,-23.800546646118164,61.24238586425781,0.0018680571811273694,0.9999864410163584,0.0,-0.0,-0.005207473805720072,0.0,-0.0,0.0,0.0,-0.0,-0.0,0.0,-0.0,0.0,0.0,-0.0,-0.01041499468373021
1547,34408702863,-23.800546646118164,61.24238586425781,0.0018680571811273694,0.9999864410163584,0.0,-0.0,-0.005207473805720072,0.0,-0.0,0.0,0.0,-0.0,-0.0,0.0,-0.0,0.0,0.0,-0.0,-0.01041499468373021
1548,34418702863,-23.800546646118164,61.24238586425781,0.0018680571811273694,0.9999864410163584,0.0,-0.0,-0.005207473805720072,0.0,-0.0,0.0,0.0,-0.0,-0.0,0.0,-0.0,0.0,0.0,-0.0,-0.01041499468373021
1549,34428702863,-23.800546646118164,61.24238586425781,0.0018680571811273694,0.9999864410163584,0.0,-0.0,-0.005207473805720072,0.0,-0.0,0.0,0.0,-0.0,-0.0,0.0,-0.0,0.0,0.0,-0.0,-0.01041499468373021
1550,34438702863,-23.800546646118164,61.24238586425781,0.0018680571811273694,0.9999864410163584,0.0,-0.0,-0.005207473805720072,0.0,-0.0,0.0,0.0,-0.0,-0.0,0.0,-0.0,0.0,0.0,-0.0,-0.01041499468373021
1551,34448702862,-23.800546646118164,61.24238586425781,0.0018680571811273694,0.9999864410163584,0.0,-0.0,-0.005207473805720072,0.0,-0.0,0.0,0.0,-0.0,-0.0,0.0,-0.0,0.0,0.0,-0.0,-0.01041499468373021
1552,34458702862,-23.800546646118164,61.24238586425781,0.0018680571811273694,0.9999864410163584,0.0,-0.0,-0.005207473805720072,0.0,-0.0,0.0,0.0,-0.0,-0.0,0.0,-0.0,0.0,0.0,-0.0,-0.01041499468373021
1553,34468702862,-23.800546646118164,61.24238586425781,0.0018680571811273694,0.9999864410163584,0.0,-0.0,-0.005207473805720072,0.0,-0.0,0.0,0.0,-0.0,-0.0,0.0,-0.0,0.0,0.0,-0.0,-0.01041499468373021
1554,34478702862,-23.800546646118164,61.24238586425781,0.0018680571811273694,0.9999864410163584,0.0,-0.0,-0.005207473805720072,0.0,-0.0,0.0,0.0,-0.0,-0.0,0.0,-0.0,0.0,0.0,-0.0,-0.01041499468373021
1555,34488702862,-23.800546646118164,61.24238586425781,0.0018680571811273694,0.9999864410163584,0.0,-0.0,-0.005207473805720072,0.0,-0.0,0.0,0.0,-0.0,-0.0,0.0,-0.0,0.0,0.0,-0.0,-0.01041499468373021
1556,34498702861,-23.800546646118164,61.24238586425781,0.0018680571811273694,0.9999864410163584,0.0,-0.0,-0.005207473805720072,0.0,-0.0,0.0,0.0,-0.0,-0.0,0.0,-0.0,0.0,0.0,-0.0,-0.01041499468373021
1557,34508702861,-23.800546646118164,61.24238586425781,0.0018680571811273694,0.9999864410163584,0.0,-0.0,-0.005207473805720072,0.0,-0.0,0.0,0.0,-0.0,-0.0,0.0,-0.0,0.0,0.0,-0.0,-0.01041499468373021
1558,34518702861,-23.800546646118164,61.24238586425781,0.0018680571811273694,0.9999864410163584,0.0,-0.0,-0.005207473805720072,0.0,-0.0,0.0,0.0,-0.0,-0.0,0.0,-0.0,0.0,0.0,-0.0,-0.01041499468373021
1559,34528702861,-23.800546646118164,61.24238586425781,0.0018680571811273694,0.9999864410163584,0.0,-0.0,-0.005207473805720072,0.0,-0.0,0.0,0.0,-0.0,-0.0,0.0,-0.0,0.0,0.0,-0.0,-0.01041499468373021
1560,34538702860,-23.800546646118164,61.24238586425781,0.0018680571811273694,0.9999864410163584,0.0,-0.0,-0.005207473805720072,0.0,-0.0,0.0,0.0,-0.0,-0.0,0.0,-0.0,0.0,0.0,-0.0,-0.01041499468373021
1561,34548702860,-23.800546646118164,61.24238586425781,0.0018680571811273694,0.9999864410163584,0.0,-0.0,-0.005207473805720072,0.0,-0.0,0.0,0.0,-0.0,-0.0,0.0,-0.0,0.0,0.0,-0.0,-0.01041499468373021
1562,34558702860,-23.800546646118164,61.24238586425781,0.0018680571811273694,0.9999864410163584,0.0,-0.0,-0.005207473805720072,0.0,-0.0,0.0,0.0,-0.0,-0.0,0.0,-0.0,0.0,0.0,-0.0,-0.01041499468373021
1563,34568702860,-23.800546646118164,61.24238586425781,0.0018680571811273694,0.9999864410163584,0.0,-0.0,-0.005207473805720072,0.0,-0.0,0.0,0.0,-0.0,-0.0,0.0,-0.0,0.0,0.0,-0.0,-0.01041499468373021
1564,34578702860,-23.800546646118164,61.24238586425781,0.0018680571811273694,0.9999864410163584,0.0,-0.0,-0.005207473805720072,0.0,-0.0,0.0,0.0,-0.0,-0.0,0.0,-0.0,0.0,0.0,-0.0,-0.01041499468373021
1565,34588702859,-23.800546646118164,61.24238586425781,0.0018058394780382514,0.9999864410163584,0.0,-0.0,-0.005207473805720072,9.971101277983507e-09,-4.826883355235623e-07,-0.006220826879143715,-4.7742840251885355e-05,-1.9420111129875295e-05,5.676411785060509e-09,9.971100780603592e-07,-4.82688337797299e-05,-0.6220827102661133,0.0,-0.0,-0.01041499468373021
1566,34598702859,-23.800546646118164,61.24238586425781,0.001753158518113196,0.9999864410163584,0.0,-0.0,-0.005207473805720072,1.13952882685453e-08,-2.7123249424221285e-07,-0.005266389809548855,-4.8994716053130105e-05,-1.970763514691498e-05,-5.025912325207216e-11,1.4241869905617932e-07,2.1145584469195455e-05,0.0954437106847763,0.0,-0.0,-0.01041499468373021
1567,34608702859,-23.800546646118164,61.24238586425781,0.0017088699387386441,0.9999864410163584,0.0,-0.0,-0.005207473805720072,-5.187863472144727e-09,-3.814355125086877e-07,-0.004429788328707218,-1.0306698641215917e-05,3.235917915844766e-07,4.262926012188473e-09,-1.6583151136728702e-06,-1.1020301826647483e-05,0.08366014808416367,0.0,-0.0,-0.01041499468373021
1568,34618702859,-23.800546646118164,61.24238586425781,0.001671867328695953,0.9999864410163584,0.0,-0.0,-0.005207473805720072,-1.859381626445611e-08,-3.163067958666943e-07,-0.0037020014133304358,-4.870063276030123e-05,2.079546538880095e-05,2.088535788757895e-09,-1.340595304100134e-06,6.5128715505125e-06,0.07277869433164597,0.0,-0.0,-0.01041499468373021
1569,34628702858,-23.800546646118164,61.24238586425781,0.0016411590622738004,0.9999864410163584,0.0,-0.0,-0.005207473805720072,-2.092228834627008e-09,-2.56071274407077e-07,-0.003069124184548855,2.1786179331684252e-06,5.76678246488882e-07,-1.1909312425117946e-09,1.6501587651873706e-06,6.0235520322748926e-06,0.06328772008419037,0.0,-0.0,-0.01041499468373021
1570,34638702858,-23.800546646118164,61.24238586425781,0.001615982037037611,0.9999864410163584,0.0,-0.0,-0.005207473805720072,1.2623243783593807e-08,-1.949082530927626e-07,-0.0025176142808049917,-4.834458013647236e-05,-1.887437974801287e-05,5.919330303694181e-11,1.4715471934323432e-06,6.116302301961696e-06,0.055150989443063736,0.0,-0.0,-0.01041499468373021
1571,34648702858,-23.800546646118164,61.24238586425781,0.001595573383383453,0.9999864410163584,0.0,-0.0,-0.005207473805720072,-2.2953190459418238e-09,-5.783239842571675e-08,-0.0020397661719471216,2.8349934382276842e-06,9.195719030685723e-07,-1.923599300679424e-11,-1.4918562101229327e-06,1.3707585821975954e-05,0.04778481274843216,0.0,-0.0,-0.01041499468373021
1572,34658702858,-23.800546646118164,61.24238586425781,0.00157928466796875,0.9999864410163584,0.0,-0.0,-0.005207473805720072,-1.4256752445263032e-09,-3.089204980710747e-08,-0.001627912512049079,4.374736818135716e-06,1.448475359211443e-06,2.599657988877624e-10,8.696437703292759e-08,2.694034947126056e-06,0.04118536412715912,0.0,-0.0,-0.01041499468373021
1573,34668702858,-23.800546646118164,61.24238586425781,0.0015665816608816385,0.9999864410163584,0.0,-0.0,-0.005207473805720072,-1.7672799890178226e-09,-4.137302767048823e-08,-0.0012720966478809714,5.795359811600065e-06,1.8147542277802131e-06,3.329414521857643e-10,-3.4160475337330354e-08,-1.04809782897064e-06,0.03558158501982689,0.0,-0.0,-0.01041499468373021
1574,34678702857,-23.800546646118164,61.24238586425781,0.0015569304814562201,0.9999864410163584,0.0,-0.0,-0.005207473805720072,-1.8122935374620397e-09,-1.0363985225581018e-08,-0.000966682389844209,7.20629577699583e-06,2.3161308035923867e-06,3.481659682780247e-10,-4.501354844421712e-09,3.1009044505481143e-06,0.030541425570845604,0.0,-0.0,-0.01041499468373021
1575,34688702857,-23.800546646118164,61.24238586425781,0.0015498732682317495,0.9999864410163584,0.0,-0.0,-0.005207473805720072,-1.938204041707081e-09,2.365229123668655e-09,-0.0007063674856908619,-4.356279987405287e-06,2.8150629987067077e-06,4.2031106373130456e-10,-1.2591049980414937e-08,1.2729213949569385e-06,0.0260314904153347,0.0,-0.0,-0.01041499468373021
1576,34698702857,-23.800546646118164,61.24238586425781,0.0015450286446139216,0.9999864410163584,0.0,-0.0,-0.005207473805720072,-2.098013540674515e-09,2.2585782133432986e-08,-0.00048538207192905247,1.0140965059690643e-05,3.182947239110945e-06,-5.501584188216668e-10,-1.5980949896743368e-08,2.022055241468479e-06,0.022098541259765625,0.0,-0.0,-0.01041499468373021
1577,34708702857,-23.800546646118164,61.24238586425781,0.001542053185403347,0.9999864410163584,0.0,-0.0,-0.005207473805720072,-3.577971696699933e-09,-1.0599626421026187e-07,-0.0002961349382530898,1.2250357940501999e-05,3.3812325455073733e-06,2.4037978274549232e-09,-1.4799582004343392e-07,-1.2858204172516707e-05,0.018924713134765625,0.0,-0.0,-0.01041499468373021
1578,34718702856,-23.800546646118164,61.24238586425781,0.0015406799502670765,0.9999864410163584,0.0,-0.0,-0.005207473805720072,-2.4135442533435025e-09,4.3915260761195896e-08,-0.0001366138458251953,1.3039760233368725e-05,3.915066372428555e-06,3.166795492504093e-09,1.164427416711078e-07,1.4991152966103982e-05,0.015952108427882195,0.0,-0.0,-0.01041499468373021
1579,34728702856,-23.800546646118164,61.24238586425781,0.0015406799502670765,0.9999864410163584,0.0,-0.0,-0.005207473805720072,-3.4620653011074864e-09,-4.587053226146054e-08,-3.0994415283203125e-06,1.647850808694784e-06,4.2233496060362086e-06,1.7215606717968512e-10,-1.0485210566457681e-07,-8.97857898962684e-06,0.0133514404296875,0.0,-0.0,-0.01041499468373021
1580,34738702856,-23.800546646118164,61.24238586425781,0.0015417098766192794,0.9999864410163584,0.0,-0.0,-0.005207473805720072,1.264968219061302e-08,7.508028687652768e-08,0.00010643959103617817,-3.6035784432897344e-05,-1.5087479368958157e-05,-2.421978395616975e-09,1.6111748664116021e-06,1.209508172905771e-05,0.010953903198242188,0.0,-0.0,-0.01041499468373021
1581,34748702856,-23.800546646118164,61.24238586425781,0.0015436934772878885,0.9999864410163584,0.0,-0.0,-0.005207473805720072,-3.920175739580145e-09,5.789826218460803e-08,0.00019743919256143272,1.6681198758305982e-05,4.801403974852292e-06,6.391538964756194e-10,-1.656985887166229e-06,-1.7182024976136745e-06,0.009099960327148438,0.0,-0.0,-0.01041499468373021
1582,34758702856,-23.800546646118164,61.24238586425781,0.001546401996165514,0.9999864410163584,0.0,-0.0,-0.005207473805720072,1.2520385617165175e-08,1.1682304545956868e-07,0.00027106283232569695,-3.311052205390297e-05,-1.4355538951349445e-05,-1.9664823103227036e-09,1.6440560557384742e-06,5.8924783843394835e-06,0.007362363860011101,0.0,-0.0,-0.01041499468373021
1583,34768702855,-23.800546646118164,61.24238586425781,0.0015497207641601562,0.9999864410163584,0.0,-0.0,-0.005207473805720072,-4.552857646444863e-09,3.671464909871247e-08,0.00033053397783078253,6.767200375179527e-06,5.502698513737414e-06,1.386440628969865e-09,-1.7073243725462817e-06,-8.010839337657671e-06,0.005947114434093237,0.0,-0.0,-0.01041499468373021
1584,34778702855,-23.800546646118164,61.24238586425781,0.001553497277200222,0.9999864410163584,0.0,-0.0,-0.005207473805720072,-3.771370771232796e-09,4.932145714064973e-08,0.0003770160546991974,8.209352017729543e-06,5.951389539404772e-06,-1.7518961281659529e-10,7.814868752120674e-08,1.2606808468262898e-06,0.004648207686841488,0.0,-0.0,-0.01041499468373021
1585,34788702855,-23.800546646118164,61.24238586425781,0.0015576170990243554,0.9999864410163584,0.0,-0.0,-0.005207473805720072,-3.5304807965985674e-09,1.0505782910286143e-07,0.00041199682164005935,2.240320827695541e-05,6.321922228380572e-06,-7.48168971220764e-10,2.4088997463422857e-08,5.573637281486299e-06,0.003498076694086194,0.0,-0.0,-0.01041499468373021
1586,34798702855,-23.800546646118164,61.24238586425781,0.0015620040940120816,0.9999864410163584,0.0,-0.0,-0.005207473805720072,-5.117641865837186e-09,-4.173642764726537e-08,0.00043954848661087453,2.4299110009451397e-05,6.413941719074501e-06,2.2873609673013107e-09,-1.58716105147505e-07,-1.4679426385555416e-05,0.002755166497081518,0.0,-0.0,-0.01041499468373021
1587,34808702854,-23.800546646118164,61.24238586425781,0.0015665816608816385,0.9999864410163584,0.0,-0.0,-0.005207473805720072,-3.4556104644423158e-09,1.4838931861049787e-07,0.0004572582256514579,2.459519964759238e-05,6.843994924565777e-06,-8.195493728102576e-10,1.6620313658677333e-07,1.901257382996846e-05,0.0017709739040583372,0.0,-0.0,-0.01041499468373021
1588,34818702854,-23.800546646118164,61.24238586425781,0.0015712737804278731,0.9999864410163584,0.0,-0.0,-0.005207473805720072,1.0128239580353693e-08,2.3312876074044198e-09,0.00046894073602743447,-2.4361575924558565e-05,-1.2672909178945702e-05,8.6297030632565e-10,1.3583850204668124e-06,-1.4605802789446898e-05,0.0011682510375976562,0.0,-0.0,-0.01041499468373021
1589,34828702854,-23.800546646118164,61.24238586425781,0.0015760039677843451,0.9999864410163584,0.0,-0.0,-0.005207473805720072,-6.555224807414106e-09,-5.7539068620826583e-08,0.00047426222590729594,2.7886577299796045e-05,6.760862561350223e-06,2.694783729495498e-09,-1.6683464991729124e-06,-5.9870358199987095e-06,0.0005321489879861474,0.0,-0.0,-0.01041499468373021
1590,34838702854,-23.800546646118164,61.24238586425781,0.0015807723393663764,0.9999864410163584,0.0,-0.0,-0.005207473805720072,-5.143531378593025e-09,-8.360001579887921e-09,0.00047635077498853207,2.8482570996857248e-05,6.865740942885168e-06,1.5402805697561917e-09,1.4116933755303762e-07,4.917906608170597e-06,0.0002088549081236124,0.0,-0.0,-0.01041499468373021
1591,34848702854,-23.800546646118164,61.24238586425781,0.0015855026431381702,0.9999864410163584,0.0,-0.0,-0.005207473805720072,-5.069985320460546e-09,3.601530185193269e-09,0.0004741573357023299,2.9508009902201593e-05,6.965433385630604e-06,1.7874127733463752e-09,7.354605813247872e-09,1.19615322091704e-06,-0.00021934392862021923,0.0,-0.0,-0.01041499468373021
1592,34858702853,-23.800546646118164,61.24238586425781,0.001590194646269083,0.9999864410163584,0.0,-0.0,-0.005207473805720072,-5.813446612989992e-09,-8.19456786871342e-08,0.0004676818789448589,3.045364428544417e-05,6.768543698854046e-06,1.4966640149438604e-09,-7.434613280565827e-08,-8.55472080729669e-06,-0.0006475456757470965,0.0,-0.0,-0.01041499468373021
1593,34868702853,-23.800546646118164,61.24238586425781,0.0015947723295539618,0.9999864410163584,0.0,-0.0,-0.005207473805720072,2.548268085433847e-08,5.0414854513292084e-09,0.0004590702010318637,-7.169324817368761e-05,-3.252634996897541e-05,-1.7583170475177212e-09,3.129612878183252e-06,8.698716555954888e-06,-0.0008611677912995219,0.0,-0.0,-0.01041499468373021
1594,34878702853,-23.800546646118164,61.24238586425781,0.0015992354601621628,0.9999864410163584,0.0,-0.0,-0.005207473805720072,-5.873009634171922e-09,9.141361090314604e-08,0.0004480075731407851,3.080156602663919e-05,6.5201193137909286e-06,7.624806896977532e-10,-3.1355689316114876e-06,8.637212886242196e-06,-0.0011062627891078591,0.0,-0.0,-0.01041499468373021
1595,34888702853,-23.800546646118164,61.24238586425781,0.0016035842709243298,0.9999864410163584,0.0,-0.0,-0.005207473805720072,-3.038566509516727e-09,2.07651638106654e-07,0.00043502807966433465,3.1646435672882944e-05,6.975645646889461e-06,-7.140646962611186e-10,2.834443080246274e-07,1.162380249297712e-05,-0.0012979493476450443,0.0,-0.0,-0.01041499468373021
1596,34898702852,-23.800546646118164,61.24238586425781,0.001607818529009819,0.9999864410163584,0.0,-0.0,-0.005207473805720072,1.0794912519429545e-08,4.307797141223091e-08,0.0004220962291583419,-1.8186297893407755e-05,-1.3046818821749184e-05,9.602857398149922e-10,1.383347921546374e-06,-1.6457366655231453e-05,-0.001293185050599277,0.0,-0.0,-0.01041499468373021
1597,34908702852,-23.800546646118164,61.24238586425781,0.0016118620987981558,0.9999864410163584,0.0,-0.0,-0.005207473805720072,-5.404686920229551e-09,4.199189973519424e-08,0.0004062175576109439,3.205897519364953e-05,6.538324214488966e-06,2.310248436998563e-09,-1.61996001679654e-06,-1.0860716770366707e-07,-0.0015878671547397971,0.0,-0.0,-0.01041499468373021
1598,34918702852,-23.800546646118164,61.24238586425781,0.0016157912323251367,0.9999864410163584,0.0,-0.0,-0.005207473805720072,-5.787965218218005e-09,-5.613787124048031e-08,0.00039136887062340975,-5.4520121921086684e-05,7.971336344780866e-06,-8.917142579889514e-09,-3.8327829798845414e-08,-9.812977623369079e-06,-0.0014848686987534165,0.0,-0.0,-0.01041499468373021
1599,34928702852,-23.800546646118164,61.24238586425781,0.001619529677554965,0.9999864410163584,0.0,-0.0,-0.005207473805720072,1.011936223704879e-08,1.7056098755574567e-08,0.0003755378711502999,-1.739394610922318e-05,-1.254102880920982e-05,3.682427029971791e-09,1.5907327224340406e-06,7.319397354876855e-06,-0.0015830999473109841,0.0,-0.0,-0.01041499468373021
1600,34938702852,-23.800546646118164,61.24238586425781,0.0016231155022978783,0.9999864410163584,0.0,-0.0,-0.005207473805720072,9.036011050511661e-09,1.887107137221733e-09,0.00036043167347088456,-1.6969022908597253e-05,-1.2627316209545825e-05,-8.913710880520398e-10,-1.0833511510099925e-07,-1.5168991467362503e-06,-0.0015106197679415345,0.0,-0.0,-0.01041499468373021
1601,34948702851,-23.800546646118164,61.24238586425781,0.0016265487065538764,0.9999864410163584,0.0,-0.0,-0.005207473805720072,-2.1158538032750585e-08,-4.080671078821041e-10,0.0003429412900004536,-1.6833260815474205e-05,2.7362782930140384e-05,4.005574094634312e-09,-3.019454879904515e-06,-2.2951742550958443e-07,-0.001749038347043097,0.0,-0.0,-0.01041499468373021
1602,34958702851,-23.800546646118164,61.24238586425781,0.0016298294067382812,0.9999864410163584,0.0,-0.0,-0.005207473805720072,-3.918992241835895e-09,3.681949323208755e-08,0.0003269672452006489,3.4293727367185056e-05,7.144006303860806e-06,1.4413191751216914e-09,1.723954710541875e-06,3.7227562188490992e-06,-0.0015974044799804688,0.0,-0.0,-0.01041499468373021
1603,34968702851,-23.800546646118164,61.24238586425781,0.0016329193022102118,0.9999864410163584,0.0,-0.0,-0.005207473805720072,-5.2867310529336464e-09,7.439323379543339e-09,0.0003099155437666923,3.5369892430026084e-05,7.322135388676543e-06,-2.413910404897024e-09,-1.367738775570615e-07,-2.9380169053183636e-06,-0.0017051701433956623,0.0,-0.0,-0.01041499468373021
1604,34978702851,-23.800546646118164,61.24238586425781,0.0016358565771952271,0.9999864410163584,0.0,-0.0,-0.005207473805720072,2.4309445123549267e-08,-7.149306924247867e-08,0.0002951144997496158,-6.574077269760892e-05,-3.198279955540784e-05,-1.188073195379502e-08,2.959617631859146e-06,-7.893239853729028e-06,-0.0014801044017076492,0.0,-0.0,-0.01041499468373021
1605,34988702850,-23.800546646118164,61.24238586425781,0.0016386413481086493,0.9999864410163584,0.0,-0.0,-0.005207473805720072,-6.582829392698386e-09,6.095342541811988e-08,0.00027937887352891266,3.516805008985102e-05,6.943396783753997e-06,1.5622839910633957e-08,-3.0892274480720516e-06,1.3244650290289428e-05,-0.0015735626220703125,0.0,-0.0,-0.01041499468373021
1606,34998702850,-23.800546646118164,61.24238586425781,0.0016386413481086493,0.9999864410163584,0.0,-0.0,-0.005207473805720072,0.0,-0.0,0.0,0.0,-0.0,-0.0,6.582829428225523e-07,-6.095342541811988e-06,-0.027937887236475945,0.0,-0.0,-0.01041499468373021
1607,35008702850,-23.800546646118164,61.24238586425781,0.0016386413481086493,0.9999864410163584,0.0,-0.0,-0.005207473805720072,-1.4582718144140472e-08,3.692668570920432e-08,6.466865306720138e-05,5.0401940825395286e-05,1.9316343241371214e-05,5.547890591373061e-09,-1.4582718677047524e-06,3.6926685424987227e-06,0.006466865539550781,0.0,-0.0,-0.01041499468373021
1608,35018702850,-23.800546646118164,61.24238586425781,0.0016401290195062757,0.9999864410163584,0.0,-0.0,-0.005207473805720072,1.4372960599473572e-09,-3.017682104200503e-08,8.58211496961303e-05,-9.101615319195844e-07,-9.35870502871694e-07,-8.016271202393455e-09,1.6020013617890072e-06,-6.710350589855807e-06,0.0021152496337890625,0.0,-0.0,-0.01041499468373021
1609,35028702850,-23.800546646118164,61.24238586425781,0.0016411590622738004,0.9999864410163584,0.0,-0.0,-0.005207473805720072,1.261144522146651e-09,-5.1470507855810865e-09,0.00010220527474302799,-2.114513563356013e-06,-1.7639241605138523e-06,1.5526735452908724e-09,-1.7615153780070614e-08,2.502976940377266e-06,0.0016384124755859375,0.0,-0.0,-0.01041499468373021
1610,35038702849,-23.800546646118164,61.24238586425781,0.0016423034248873591,0.9999864410163584,0.0,-0.0,-0.005207473805720072,-1.3297387191357757e-08,3.626404421197549e-08,0.0001151370961451903,4.850241384701803e-05,1.7496669897809625e-05,6.1243072835281964e-09,-1.455853180232225e-06,4.141109457123093e-06,0.0012931821402162313,0.0,-0.0,-0.01041499468373021
1611,35048702849,-23.800546646118164,61.24238586425781,0.0016435622237622738,0.9999864410163584,0.0,-0.0,-0.005207473805720072,-1.2240024993559473e-08,7.088324149862046e-09,0.00012513159890659153,4.8305457312380895e-05,1.706771581666544e-05,-2.2612201000526966e-09,1.0573621977982839e-07,-2.917571919169859e-06,0.0009994502179324627,0.0,-0.0,-0.01041499468373021
1612,35058702849,-23.800546646118164,61.24238586425781,0.001644897391088307,0.9999864410163584,0.0,-0.0,-0.005207473805720072,3.1215254825411876e-09,-3.4946747717867765e-08,0.0001321125018876046,-3.6815333714912413e-06,-3.3421977150283055e-06,-6.370081351292356e-09,1.5361549685621867e-06,-4.203507160127629e-06,0.000698090298101306,0.0,-0.0,-0.01041499468373021
1613,35068702849,-23.800546646118164,61.24238586425781,0.0016462707426398993,0.9999864410163584,0.0,-0.0,-0.005207473805720072,1.7898662107995733e-08,-4.4093894757679664e-08,0.00013789176591672003,-5.6954773754114285e-05,-2.3958755264175124e-05,-3.621256183805599e-09,1.4777136811972014e-06,-9.147146897703351e-07,0.0005779264029115438,0.0,-0.0,-0.01041499468373021
1614,35078702848,-23.800546646118164,61.24238586425781,0.001647682162001729,0.9999864410163584,0.0,-0.0,-0.005207473805720072,-1.217594203239969e-08,6.389838347331533e-08,0.00013927459076512605,4.216859815642238e-05,1.4875232409394812e-05,1.405803384812998e-08,-3.0074602364038583e-06,1.0799228221003432e-05,0.00013828248484060168,0.0,-0.0,-0.01041499468373021
1615,35088702848,-23.800546646118164,61.24238586425781,0.0016490935813635588,0.9999864410163584,0.0,-0.0,-0.005207473805720072,4.228322580956956e-09,-2.5858225782826594e-08,0.00014104842557571828,-7.884298611315899e-06,-4.846230694965925e-06,-9.325042071850476e-09,1.640426489757374e-06,-8.975661330623552e-06,0.0001773834810592234,0.0,-0.0,-0.01041499468373021
1616,35098702848,-23.800546646118164,61.24238586425781,0.0016505050007253885,0.9999864410163584,0.0,-0.0,-0.005207473805720072,3.18167292512328e-09,-6.915363570669797e-08,0.0001412296260241419,-9.686925477581099e-05,-4.448445906746201e-06,-4.868411007663553e-09,-1.0466496291883232e-07,-4.329540843173163e-06,1.8120044842362404e-05,0.0,-0.0,-0.01041499468373021
1617,35108702848,-23.800546646118164,61.24238586425781,0.0016519164200872183,0.9999864410163584,0.0,-0.0,-0.005207473805720072,4.630224204049682e-09,4.948573817387114e-08,0.00014015196938998997,-1.0446881788084283e-05,-5.7973797993327025e-06,1.0426352226033941e-08,1.4485512167539127e-07,1.186393819807563e-05,-0.00010776566341519356,0.0,-0.0,-0.01041499468373021
1618,35118702847,-23.800546646118164,61.24238586425781,0.0016532897716388106,0.9999864410163584,0.0,-0.0,-0.005207473805720072,-1.027245843943092e-08,4.365594463706657e-08,0.00013748169294558465,4.034104131278582e-05,1.3407227015704848e-05,2.6495394767067637e-09,-1.4902682323736371e-06,-5.829793394696026e-07,-0.00026702764444053173,0.0,-0.0,-0.01041499468373021
1619,35128702847,-23.800546646118164,61.24238586425781,0.0016546630067750812,0.9999864410163584,0.0,-0.0,-0.005207473805720072,5.462275964873697e-09,-2.9356492348142638e-08,0.00013565062545239925,-1.0505293175810948e-05,-6.579060936928727e-06,-8.826690489627254e-09,1.5734734688521712e-06,-7.301243840629468e-06,-0.0001831067493185401,0.0,-0.0,-0.01041499468373021
1620,35138702847,-23.800546646118164,61.24238586425781,0.0016559981741011143,0.9999864410163584,0.0,-0.0,-0.005207473805720072,5.3045314807320665e-09,-5.6000155623792125e-09,0.00013304709864314646,-1.1884038030984811e-05,-7.432684469677042e-06,1.3474037441341125e-09,-1.577444841416309e-08,2.375647682129056e-06,-0.00026035268092527986,0.0,-0.0,-0.01041499468373021
1621,35148702847,-23.800546646118164,61.24238586425781,0.0016572570893913507,0.9999864410163584,0.0,-0.0,-0.005207473805720072,5.566404226442501e-09,-1.7034312849162347e-09,0.00012776374933309853,-1.2392352800816298e-05,-7.806373105267994e-06,4.662726871274003e-10,2.6187274571043417e-08,3.8965845305938274e-07,-0.0005283349310047925,0.0,-0.0,-0.01041499468373021
1622,35158702847,-23.800546646118164,61.24238586425781,0.0016585158882662654,0.9999864410163584,0.0,-0.0,-0.005207473805720072,5.9607900837477246e-09,-1.0695402341553972e-09,0.000124273297842592,-1.2746932952723e-05,-8.343203262484167e-06,5.0904825493747197e-11,3.943858573052239e-08,6.338910196745928e-08,-0.000349045149050653,0.0,-0.0,-0.01041499468373021
1623,35168702846,-23.800546646118164,61.24238586425781,0.0016596984351053834,0.9999864410163584,0.0,-0.0,-0.005207473805720072,-8.584657429366871e-09,3.6277857162758664e-08,0.00012007712939521298,3.777815800276585e-05,1.089114448404871e-05,5.587182716482175e-09,-1.454544758416887e-06,3.7347397210396593e-06,-0.0004196168447379023,0.0,-0.0,-0.01041499468373021
1624,35178702846,-23.800546646118164,61.24238586425781,0.001660842914134264,0.9999864410163584,0.0,-0.0,-0.005207473805720072,-7.794537459915318e-09,7.172647809028376e-09,0.00011438369256211445,3.8369013054762036e-05,1.0806582395161968e-05,-2.2714294889425446e-09,7.901199694515526e-08,-2.910520834120689e-06,-0.0005693436833098531,0.0,-0.0,-0.01041499468373021
1625,35188702846,-23.800546646118164,61.24238586425781,0.0016619490925222635,0.9999864410163584,0.0,-0.0,-0.005207473805720072,6.982084244100406e-09,-3.375146562234477e-08,0.00011014938354492188,-1.1375529538781848e-05,-8.811986845103092e-06,-6.183257905689743e-09,1.4776621810597135e-06,-4.092411472811364e-06,-0.00042343090171925724,0.0,-0.0,-0.01041499468373021
1626,35198702846,-23.800546646118164,61.24238586425781,0.0016630172031000257,0.9999864410163584,0.0,-0.0,-0.005207473805720072,6.566521992823482e-09,-5.756976229065458e-09,0.00010535240289755166,-1.2061320376233198e-05,-9.266398592444602e-06,2.0526917943186618e-09,-4.1556226904049254e-08,2.79944879366667e-06,-0.0004796980647370219,0.0,-0.0,-0.01041499468373021
1627,35208702845,-23.800546646118164,61.24238586425781,0.0016630172031000257,0.9999864410163584,0.0,-0.0,-0.005207473805720072,-7.928649736754778e-09,3.584893093488972e-08,0.00010002135968534276,3.8741080061299726e-05,9.938758921634872e-06,6.1848677290754495e-09,-1.4495171853923239e-06,4.1605908336350694e-06,-0.0005331042921170592,0.0,-0.0,-0.01041499468373021
1628,35218702845,-23.800546646118164,61.24238586425781,0.0016649627359583974,0.9999864410163584,0.0,-0.0,-0.005207473805720072,7.569822990660668e-09,-2.986677927196979e-08,9.588241664459929e-05,-1.1189656106580514e-05,-9.623076039133593e-06,-7.746392860497053e-09,1.5498471839237027e-06,-6.571571248059627e-06,-0.000413894304074347,0.0,-0.0,-0.01041499468373021
1629,35228702845,-23.800546646118164,61.24238586425781,0.0016649627359583974,0.9999864410163584,0.0,-0.0,-0.005207473805720072,6.243965344765456e-09,-6.955170306355285e-08,9.057045099325478e-05,-9.9723540188279e-05,-8.824147698760498e-06,-4.328108982321055e-09,-1.3258576814223488e-07,-3.968492364947451e-06,-0.0005311965942382812,0.0,-0.0,-0.01041499468373021
1630,35238702845,-23.800546646118164,61.24238586425781,0.001666755648329854,0.9999864410163584,0.0,-0.0,-0.005207473805720072,-7.585443384527935e-09,8.789211847215483e-08,8.63265959196724e-05,3.9393115002894774e-05,1.009612788038794e-05,1.630583135181496e-08,-1.3829409226673306e-06,1.5744382835691795e-05,-0.0004243855073582381,0.0,-0.0,-0.01041499468373021
1631,35248702845,-23.800546646118164,61.24238586425781,0.001666755648329854,0.9999864410163584,0.0,-0.0,-0.005207473805720072,7.790367462234826e-09,-2.2798202437002146e-08,8.119583071675152e-05,-1.0866740922210738e-05,-9.787448107090313e-06,-1.0911959336112886e-08,1.5375810562545666e-06,-1.1069032552768476e-05,-0.0005130765493959188,0.0,-0.0,-0.01041499468373021
1632,35258702844,-23.800546646118164,61.24238586425781,0.0016683196881785989,0.9999864410163584,0.0,-0.0,-0.005207473805720072,6.787661099849629e-09,-3.1864577643148095e-09,7.719993300270289e-05,-1.0157604265259579e-05,-9.605733794160187e-06,8.656149685926096e-10,-1.0027063979123341e-07,1.961174575626501e-06,-0.0003995897714048624,0.0,-0.0,-0.01041499468373021
1633,35268702844,-23.800546646118164,61.24238586425781,0.0016683196881785989,0.9999864410163584,0.0,-0.0,-0.005207473805720072,-8.55794279885913e-09,-2.83286087920942e-08,7.370948878815398e-05,-4.757812712341547e-05,1.0801876669574995e-05,-7.916887284631358e-11,-1.5345603969763033e-06,-2.5142151116597233e-06,-0.00034904442145489156,0.0,-0.0,-0.01041499468373021
1634,35278702844,-23.800546646118164,61.24238586425781,0.0016697311075404286,0.9999864410163584,0.0,-0.0,-0.005207473805720072,-6.453725998056825e-09,5.809271286238982e-08,6.91604582243599e-05,3.9820271922508255e-05,9.581171980244108e-06,7.800760037923737e-09,2.1042167475116003e-07,8.642132343084086e-06,-0.00045490305637940764,0.0,-0.0,-0.01041499468373021
1635,35288702844,-23.800546646118164,61.24238586425781,0.0016697311075404286,0.9999864410163584,0.0,-0.0,-0.005207473805720072,7.624194608979451e-09,-2.5851381479924385e-08,6.575584120582789e-05,-8.938917744671926e-06,-9.641288670536596e-06,-9.088431340842362e-09,1.4077920695854118e-06,-8.394409633183386e-06,-0.0003404617018532008,0.0,-0.0,-0.01041499468373021
1636,35298702843,-23.800546646118164,61.24238586425781,0.0016709899064153433,0.9999864410163584,0.0,-0.0,-0.005207473805720072,6.926536233464731e-09,-3.985546559448494e-09,6.220817158464342e-05,-8.850092854117975e-06,-9.805265108298045e-06,1.2202674426475824e-09,-6.976583932782887e-08,2.186583515140228e-06,-0.0003547669621184468,0.0,-0.0,-0.01041499468373021
1637,35308702843,-23.800546646118164,61.24238586425781,0.0016709899064153433,0.9999864410163584,0.0,-0.0,-0.005207473805720072,7.092804565900224e-09,-8.659517547471296e-10,5.810737638967112e-05,-8.680519385961816e-06,-1.002251428872114e-05,3.94012017457257e-10,1.66268332435493e-08,3.1195946803563857e-07,-0.00041007951949723065,0.0,-0.0,-0.01041499468373021
1638,35318702843,-23.800546646118164,61.24238586425781,0.0016720962012186646,0.9999864410163584,0.0,-0.0,-0.005207473805720072,-7.735987850310266e-09,3.704226614331674e-08,5.389213401940651e-05,4.26267106377054e-05,9.610279448679648e-06,5.715639073144985e-09,-1.4828792700427584e-06,3.7908218928350834e-06,-0.00042152422247454524,0.0,-0.0,-0.01041499468373021
1639,35328702843,-23.800546646118164,61.24238586425781,0.0016720962012186646,0.9999864410163584,0.0,-0.0,-0.005207473805720072,-7.149306480158657e-09,7.920525568749781e-09,5.1708218961721286e-05,4.382311090012081e-05,9.817658792599104e-06,-2.2305832736435605e-09,5.86681352388041e-08,-2.9121740681148367e-06,-0.00021839150576852262,0.0,-0.0,-0.01041499468373021
1640,35338702843,-23.800546646118164,61.24238586425781,0.0016720962012186646,0.9999864410163584,0.0,-0.0,-0.005207473805720072,7.46763717529575e-09,-3.454816877024314e-08,4.718780473922379e-05,-7.4589620453480165e-06,-9.572523595124949e-06,-6.301186683543847e-09,1.4616944099543616e-06,-4.246869593771407e-06,-0.0004520414222497493,0.0,-0.0,-0.01041499468373021
1641,35348702842,-23.800546646118164,61.24238586425781,0.0016735458048060536,0.9999864410163584,0.0,-0.0,-0.005207473805720072,6.482196557300313e-09,-5.597287078273894e-09,4.4126511056674644e-05,-7.996022759471089e-06,-9.245556611858774e-06,2.211814953412272e-09,-9.854406357590051e-08,2.8950883006473305e-06,-0.0003061293682549149,0.0,-0.0,-0.01041499468373021
1642,35358702842,-23.800546646118164,61.24238586425781,0.0016735458048060536,0.9999864410163584,0.0,-0.0,-0.005207473805720072,6.3302905140005805e-09,-3.0927424510274193e-10,4.213333158986643e-05,-6.812778792664176e-06,-8.985250133264344e-06,7.444803662437494e-10,-1.5190604329973212e-08,5.28801251675759e-07,-0.00019931794668082148,0.0,-0.0,-0.01041499468373021
1643,35368702842,-23.800546646118164,61.24238586425781,0.0016735458048060536,0.9999864410163584,0.0,-0.0,-0.005207473805720072,-8.633445958139419e-09,3.787534197385867e-08,3.870964064844884e-05,4.5409022277453914e-05,1.0856027984118555e-05,5.796883861819424e-09,-1.4963736703066388e-06,3.818461664195638e-06,-0.00034236907958984375,0.0,-0.0,-0.01041499468373021
1644,35378702842,-23.800546646118164,61.24238586425781,0.0016747283516451716,0.9999864410163584,0.0,-0.0,-0.005207473805720072,-8.891197111893234e-09,-5.812292158680066e-08,3.672599632409401e-05,-4.389634705148637e-05,1.2257381968083791e-05,-8.377467608511324e-09,-2.5775115375381574e-08,-9.59982571657747e-06,-0.00019836443243548274,0.0,-0.0,-0.01041499468373021
1645,35388702841,-23.800546646118164,61.24238586425781,0.0016747283516451716,0.9999864410163584,0.0,-0.0,-0.005207473805720072,6.7571508388653e-09,1.7820878994712075e-08,3.396034298930317e-05,-6.003424459777307e-06,-7.88339093560353e-06,4.0328842487724614e-09,1.5648348608010565e-06,7.594380349473795e-06,-0.00027656531892716885,0.0,-0.0,-0.01041499468373021
1646,35398702841,-23.800546646118164,61.24238586425781,0.0016747283516451716,0.9999864410163584,0.0,-0.0,-0.005207473805720072,-9.389661492775758e-09,4.058279401419895e-08,3.101348920608871e-05,4.6393619413720444e-05,1.2008556041109841e-05,4.85535833760764e-09,-1.6146811958606122e-06,2.2761914806324057e-06,-0.00029468536376953125,0.0,-0.0,-0.01041499468373021
1647,35408702841,-23.800546646118164,61.24238586425781,0.0016747283516451716,0.9999864410163584,0.0,-0.0,-0.005207473805720072,-9.322316252280416e-09,-5.614370124362722e-08,2.955436684715096e-05,-4.079238715348765e-05,1.29068830574397e-05,-8.588367350625958e-09,6.7345240495342296e-09,-9.67264986684313e-06,-0.00014591222861781716,0.0,-0.0,-0.01041499468373021
1648,35418702841,-23.800546646118164,61.24238586425781,0.0016747283516451716,0.9999864410163584,0.0,-0.0,-0.005207473805720072,0.0,-0.0,0.0,0.0,-0.0,-0.0,9.322316145699006e-07,5.614369911199901e-06,-0.0029554367065429688,0.0,-0.0,-0.01041499468373021
1649,35428702841,-23.800546646118164,61.24238586425781,0.0016757582779973745,0.9999864410163584,0.0,-0.0,-0.005207473805720072,4.4506764940166477e-10,-2.9860691697081165e-10,6.322860372165451e-06,-4.072351202921709e-07,-5.903547162233735e-07,-9.158500346995169e-11,4.4506766272434106e-08,-2.9860693473438005e-08,0.0006322860135696828,0.0,-0.0,-0.01041499468373021
1650,35438702840,-23.800546646118164,61.24238586425781,0.0016757582779973745,0.9999864410163584,0.0,-0.0,-0.005207473805720072,4.401179143354028e-10,2.962084189039871e-10,8.21113553683972e-06,8.245767446624086e-08,-6.213633128027141e-07,4.714152679330397e-11,-4.949735066261951e-10,5.948152903556547e-08,0.0001888275146484375,0.0,-0.0,-0.01041499468373021
1651,35448702840,-23.800546646118164,61.24238586425781,0.0016757582779973745,0.9999864410163584,0.0,-0.0,-0.005207473805720072,7.58742513262689e-10,-2.6018717735887265e-10,1.0051727258542087e-05,-3.288547247848328e-07,-1.0497841458345647e-06,-9.288154967368456e-11,3.186245933761711e-08,-5.563956051446439e-08,0.0001840591721702367,0.0,-0.0,-0.01041499468373021
1652,35458702840,-23.800546646118164,61.24238586425781,0.0016757582779973745,0.9999864410163584,0.0,-0.0,-0.005207473805720072,1.5644907591649826e-08,-3.719731722640063e-08,1.1358260962879285e-05,-5.102291106595658e-05,-2.07955436053453e-05,-5.601709318625581e-09,1.4886164763083798e-06,-3.693713097163709e-06,0.00013065336679574102,0.0,-0.0,-0.01041499468373021
1653,35468702840,-23.800546646118164,61.24238586425781,0.0016757582779973745,0.9999864410163584,0.0,-0.0,-0.005207473805720072,4.5293629957754433e-10,2.9417570601708576e-08,1.1940001968469005e-05,-6.513812991215673e-07,-1.6690800066498923e-06,7.846804983557831e-09,-1.519197212473955e-06,6.661488896497758e-06,5.8174100558971986e-05,0.0,-0.0,-0.01041499468373021
1654,35478702839,-23.800546646118164,61.24238586425781,0.0016757582779973745,0.9999864410163584,0.0,-0.0,-0.005207473805720072,-1.357961298964483e-08,4.185313429161397e-08,1.241683912667213e-05,5.0910271966131404e-05,1.7908912923303433e-05,3.97516242145457e-09,-1.4032549415787798e-06,1.2435564258339582e-06,4.76837158203125e-05,0.0,-0.0,-0.01041499468373021
1655,35488702839,-23.800546646118164,61.24238586425781,0.0016757582779973745,0.9999864410163584,0.0,-0.0,-0.005207473805720072,2.1485730972159445e-09,-2.8925473571916882e-08,1.1930465007026214e-05,3.514084880862356e-07,-1.971652409338276e-06,-8.480689039913614e-09,1.5728186326668947e-06,-7.077861027937615e-06,-4.863741196459159e-05,0.0,-0.0,-0.01041499468373021
1656,35498702839,-23.800546646118164,61.24238586425781,0.0016757582779973745,0.9999864410163584,0.0,-0.0,-0.005207473805720072,-1.3384103603186759e-08,3.346170984741548e-08,1.2178420547570568e-05,5.154095561010763e-05,1.7552867575432174e-05,7.203798446653309e-09,-1.5532677934970707e-06,6.238718924578279e-06,2.4795554054435343e-05,0.0,-0.0,-0.01041499468373021
1657,35508702839,-23.800546646118164,61.24238586425781,0.0016757582779973745,0.9999864410163584,0.0,-0.0,-0.005207473805720072,2.379597408008749e-09,-3.0024537522876926e-08,1.2941360182594508e-05,1.0507460501685273e-06,-2.3281968424271327e-06,-7.47045003635094e-09,1.5763700957904803e-06,-6.348624538077274e-06,7.629395986441523e-05,0.0,-0.0,-0.01041499468373021
1658,35518702839,-23.800546646118164,61.24238586425781,0.0016767883207648993,0.9999864410163584,0.0,-0.0,-0.005207473805720072,1.6498427513056413e-08,-4.234704675809553e-08,1.3608932022179943e-05,-5.1060527766821906e-05,-2.2063688447815366e-05,-3.938100068268113e-09,1.4118830904408242e-06,-1.2322509519435698e-06,6.675718759652227e-05,0.0,-0.0,-0.01041499468373021
1659,35528702838,-23.800546646118164,61.24238586425781,0.0016767883207648993,0.9999864410163584,0.0,-0.0,-0.005207473805720072,1.0245310155809761e-09,2.820429934047297e-08,1.3513565136236139e-05,-1.3499454780685483e-06,-2.5270419428125024e-06,8.42679437340621e-09,-1.5473896155526745e-06,7.055134574329713e-06,-9.536688594380394e-06,0.0,-0.0,-0.01041499468373021
1660,35538702838,-23.800546646118164,61.24238586425781,0.0016767883207648993,0.9999864410163584,0.0,-0.0,-0.005207473805720072,1.6824066584320008e-09,4.00096045183318e-09,1.2874603271484375e-05,-1.1746757309083478e-06,-2.3652792151551694e-06,-1.501675006565506e-09,6.578756739372693e-08,-2.4203338853112655e-06,-6.389618647517636e-05,0.0,-0.0,-0.01041499468373021
1661,35548702838,-23.800546646118164,61.24238586425781,0.0016767883207648993,0.9999864410163584,0.0,-0.0,-0.005207473805720072,1.756460754620548e-09,7.426282921940697e-10,1.2121200597903226e-05,-8.380420126741228e-07,-2.4759665393503383e-06,-4.701671829643317e-10,7.405409618854719e-09,-3.25833241276996e-07,-7.534027099609375e-05,0.0,-0.0,-0.01041499468373021
1662,35558702838,-23.800546646118164,61.24238586425781,0.0016767883207648993,0.9999864410163584,0.0,-0.0,-0.005207473805720072,-1.32437110167416e-08,3.728441200223642e-08,1.1672973414533772e-05,4.997825817554258e-05,1.737668389978353e-05,5.523353330261216e-09,-1.5000172197687789e-06,3.654178499346017e-06,-4.48227183369454e-05,0.0,-0.0,-0.01041499468373021
1663,35568702837,-23.800546646118164,61.24238586425781,0.0016767883207648993,0.9999864410163584,0.0,-0.0,-0.005207473805720072,2.4795598907445537e-09,-2.9540213830614448e-08,1.1739730325643905e-05,-4.889446927336394e-07,-2.4505993678758387e-06,-7.950221814212455e-09,1.5723271644674242e-06,-6.682462753815344e-06,6.675691111013293e-06,0.0,-0.0,-0.01041499468373021
1664,35578702837,-23.800546646118164,61.24238586425781,0.0016767883207648993,0.9999864410163584,0.0,-0.0,-0.005207473805720072,1.1354974738253532e-09,-6.990956080699107e-08,1.1396407899155747e-05,-9.025057079270482e-05,-1.6417154711234616e-06,-4.410693588141612e-09,-1.3440623547467112e-07,-4.0369345697399694e-06,-3.4332242648815736e-05,0.0,-0.0,-0.01041499468373021
1665,35588702837,-23.800546646118164,61.24238586425781,0.0016767883207648993,0.9999864410163584,0.0,-0.0,-0.005207473805720072,-1.2488982292779838e-08,8.761689684888552e-08,1.1377333976270165e-05,4.79508307762444e-05,1.7016158381011337e-05,1.6275155445555356e-08,-1.3624479606733075e-06,1.5752646504552104e-05,-1.907392288558185e-06,0.0,-0.0,-0.01041499468373021
1666,35598702837,-23.800546646118164,61.24238586425781,0.0016767883207648993,0.9999864410163584,0.0,-0.0,-0.005207473805720072,-1.2084989009508718e-08,1.5103982065056698e-08,1.009941115626134e-05,4.892753349849954e-05,1.6954840248217806e-05,-5.194531027541416e-09,4.0399328327112016e-08,-7.251291663123993e-06,-0.00012779228563886136,0.0,-0.0,-0.01041499468373021
1667,35608702837,-23.800546646118164,61.24238586425781,0.0016778564313426614,0.9999864410163584,0.0,-0.0,-0.005207473805720072,1.767644697281412e-08,-7.015695757672802e-08,1.0805129932123236e-05,-5.2680494263768196e-05,-2.2615959096583538e-05,-1.2783419656159367e-08,2.976143605337711e-06,-8.526093552063685e-06,7.057187758618966e-05,0.0,-0.0,-0.01041499468373021
1668,35618702836,-23.800546646118164,61.24238586425781,0.0016778564313426614,0.9999864410163584,0.0,-0.0,-0.005207473805720072,1.6886678722016768e-09,2.4527256670126008e-08,9.765624781721272e-06,-2.581838316473295e-06,-3.461565711404546e-06,9.858498017933925e-09,-1.5987779988790862e-06,9.468421012570616e-06,-0.00010395051504019648,0.0,-0.0,-0.01041499468373021
1669,35628702836,-23.800546646118164,61.24238586425781,0.0016778564313426614,0.9999864410163584,0.0,-0.0,-0.005207473805720072,2.8465971801949763e-09,3.1603826222692533e-09,9.679793947725557e-06,-2.7726530333893606e-06,-3.971455953433178e-06,-1.1604022187583496e-09,1.1579292902297311e-07,-2.136687498932588e-06,-8.583083399571478e-06,0.0,-0.0,-0.01041499468373021
1670,35638702836,-23.800546646118164,61.24238586425781,0.0016778564313426614,0.9999864410163584,0.0,-0.0,-0.005207473805720072,2.9126541178925436e-09,4.5535925030648627e-10,9.489059266343247e-06,-2.562451982157654e-06,-4.108146640646737e-06,-3.8212324970920974e-10,6.605693769756726e-09,-2.7050234052694577e-07,-1.9073468138230965e-05,0.0,-0.0,-0.01041499468373021
1671,35648702836,-23.800546646118164,61.24238586425781,0.0016778564313426614,0.9999864410163584,0.0,-0.0,-0.005207473805720072,-1.153979667378735e-08,3.7045293055371076e-08,8.19206252344884e-06,4.809560050489381e-05,1.5017199984868057e-05,5.458578922201696e-09,-1.445245061404421e-06,3.658993364297203e-06,-0.00012969967792741954,0.0,-0.0,-0.01041499468373021
1672,35658702835,-23.800546646118164,61.24238586425781,0.0016778564313426614,0.9999864410163584,0.0,-0.0,-0.005207473805720072,3.1896409957710148e-09,-9.402962319882135e-08,8.153915587172378e-06,-9.024838800542057e-05,-3.475592393442639e-06,-1.3843842516791938e-08,1.4729437225469155e-06,-1.3107491213304456e-05,-3.814693627646193e-06,0.0,-0.0,-0.01041499468373021
1673,35668702835,-23.800546646118164,61.24238586425781,0.0016778564313426614,0.9999864410163584,0.0,-0.0,-0.005207473805720072,-1.0979309905678747e-08,8.363484482742933e-08,7.44819635656313e-06,4.713613452622667e-05,1.4863815522403456e-05,1.7276814645583727e-08,-1.4168950883686193e-06,1.7766447854228318e-05,-7.057192124193534e-05,0.0,-0.0,-0.01041499468373021
1674,35678702835,-23.800546646118164,61.24238586425781,0.0016778564313426614,0.9999864410163584,0.0,-0.0,-0.005207473805720072,1.9095031333904444e-08,-5.962361626643542e-08,7.591247594973538e-06,-5.305915328790434e-05,-2.4501816369593143e-05,-1.596770182743512e-08,3.007433861057507e-06,-1.4325845768325962e-05,1.4305123841040768e-05,0.0,-0.0,-0.01041499468373021
1675,35688702835,-23.800546646118164,61.24238586425781,0.0016778564313426614,0.9999864410163584,0.0,-0.0,-0.005207473805720072,-1.1591636983609988e-08,6.27692031685001e-08,6.4277646742993966e-06,4.7261932195397094e-05,1.4024225492903497e-05,1.4232039546868691e-08,-3.0686667287227465e-06,1.2239282114023808e-05,-0.00011634829570539296,0.0,-0.0,-0.01041499468373021
1676,35698702835,-23.800546646118164,61.24238586425781,0.0016778564313426614,0.9999864410163584,0.0,-0.0,-0.005207473805720072,1.947329941742737e-08,-6.273698005543338e-08,6.4373016357421875e-06,-5.3196716180536896e-05,-2.514851075829938e-05,-1.4755388910714373e-08,3.1064935228641843e-06,-1.2550617611850612e-05,9.536961442790926e-07,0.0,-0.0,-0.01041499468373021
1677,35708702834,-23.800546646118164,61.24238586425781,0.0016778564313426614,0.9999864410163584,0.0,-0.0,-0.005207473805720072,-1.1143053590956242e-08,6.248897932437103e-08,5.140304438100429e-06,4.734971298603341e-05,1.3375815797189716e-05,1.4611908127903916e-08,-3.0616351978096645e-06,1.252259698958369e-05,-0.00012969972158316523,0.0,-0.0,-0.01041499468373021
1678,35718702834,-23.800546646118164,61.24238586425781,0.0016778564313426614,0.9999864410163584,0.0,-0.0,-0.005207473805720072,5.122993584905089e-09,-2.549952959896018e-08,5.455016889754916e-06,-2.2292799712886335e-06,-6.187619419506518e-06,-9.082617324907005e-09,1.6266046714008553e-06,-8.798851013125386e-06,3.1471245165448636e-05,0.0,-0.0,-0.01041499468373021
1679,35728702834,-23.800546646118164,61.24238586425781,0.0016778564313426614,0.9999864410163584,0.0,-0.0,-0.005207473805720072,4.459545621671168e-09,-3.497016232145711e-09,6.151199158921372e-06,-1.9565425191103714e-06,-6.353035587380873e-06,1.2288835504747908e-09,-6.634479632339207e-08,2.2002514015184715e-06,6.961822509765625e-05,0.0,-0.0,-0.01041499468373021
1680,35738702834,-23.800546646118164,61.24238586425781,0.0016778564313426614,0.9999864410163584,0.0,-0.0,-0.005207473805720072,-1.0016997897821511e-08,3.6574665074340373e-08,4.301070930523565e-06,4.879670814261772e-05,1.2825534213334322e-05,5.95375482248528e-09,-1.4476543128694175e-06,4.007168172392994e-06,-0.0001850128173828125,0.0,-0.0,-0.01041499468373021
1681,35748702833,-23.800546646118164,61.24238586425781,0.0016778564313426614,0.9999864410163584,0.0,-0.0,-0.005207473805720072,5.501076483227507e-09,-2.8962221065853555e-08,4.472732598514995e-06,-6.412106472453161e-07,-6.7672958721232135e-06,-7.755980746537716e-09,1.5518073723796988e-06,-6.553688763233367e-06,1.7166166799142957e-05,0.0,-0.0,-0.01041499468373021
1682,35758702833,-23.800546646118164,61.24238586425781,0.0016788863576948643,0.9999864410163584,0.0,-0.0,-0.005207473805720072,4.273823517308983e-09,-6.877625224888106e-08,4.301070930523565e-06,-8.892254118109122e-05,-6.105350621510297e-06,-4.355622529317316e-09,-1.2272529659185238e-07,-3.981403096986469e-06,-1.7166166799142957e-05,0.0,-0.0,-0.01041499468373021
1683,35768702833,-23.800546646118164,61.24238586425781,0.0016788863576948643,0.9999864410163584,0.0,-0.0,-0.005207473805720072,5.620968579478358e-09,5.0584358035621335e-08,4.110336249141255e-06,-1.5252740013238508e-06,-7.300273409782676e-06,1.056165288559896e-08,1.34714511546008e-07,1.1936061127926223e-05,-1.9073468138230965e-05,0.0,-0.0,-0.01041499468373021
1684,35778702833,-23.800546646118164,61.24238586425781,0.0016788863576948643,0.9999864410163584,0.0,-0.0,-0.005207473805720072,-9.15561315650848e-09,4.427667121831291e-08,3.566741952454322e-06,4.939552309224382e-05,1.1741350135707762e-05,2.6008952769274174e-09,-1.4776582020203932e-06,-6.307686817308422e-07,-5.4359428759198636e-05,0.0,-0.0,-0.01041499468373021
1685,35788702833,-23.800546646118164,61.24238586425781,0.0016788863576948643,0.9999864410163584,0.0,-0.0,-0.005207473805720072,6.169151856028066e-09,-2.805760246360478e-08,3.604888888730784e-06,-3.0469763601104205e-07,-7.714573257544544e-06,-8.709958088104486e-09,1.532476517240866e-06,-7.233427368191769e-06,3.814693627646193e-06,0.0,-0.0,-0.01041499468373021
1686,35798702832,-23.800546646118164,61.24238586425781,0.0016788863576948643,0.9999864410163584,0.0,-0.0,-0.005207473805720072,-1.0145620343848805e-08,-3.06502698776967e-08,3.7288664316292852e-06,-3.673188257380389e-05,1.2926528142997995e-05,1.1943180888707161e-09,-1.631477175578766e-06,-2.5926675562004675e-07,1.2397754289850127e-05,0.0,-0.0,-0.01041499468373021
1687,35808702832,-23.800546646118164,61.24238586425781,0.0016788863576948643,0.9999864410163584,0.0,-0.0,-0.005207473805720072,6.582761002960069e-09,2.1570732755549216e-08,2.9945372261863668e-06,6.150058879939024e-07,-7.640320291102398e-06,2.6331883340446893e-09,1.6728382661312935e-06,5.2221002988517284e-06,-7.343292236328125e-05,0.0,-0.0,-0.01041499468373021
1688,35818702832,-23.800546646118164,61.24238586425781,0.0016788863576948643,0.9999864410163584,0.0,-0.0,-0.005207473805720072,-9.058764405267539e-09,4.0167478232433496e-08,2.317428425158141e-06,5.134427919983864e-05,1.1536531928868499e-05,4.2490415630425105e-09,-1.5641525124010514e-06,1.8596745121612912e-06,-6.771087646484375e-05,0.0,-0.0,-0.01041499468373021
1689,35828702832,-23.800546646118164,61.24238586425781,0.0016788863576948643,0.9999864410163584,0.0,-0.0,-0.005207473805720072,6.313153999570886e-09,-2.8435424681561017e-08,2.2220610844669864e-06,1.8020413108388311e-06,-7.94761763245333e-06,-8.197407197485518e-09,1.5371919062090456e-06,-6.860290341137443e-06,-9.536734069115482e-06,0.0,-0.0,-0.01041499468373021
1690,35838702831,-23.800546646118164,61.24238586425781,0.0016788863576948643,0.9999864410163584,0.0,-0.0,-0.005207473805720072,0.0,-0.0,0.0,0.0,-0.0,-0.0,-6.313154017334455e-07,2.8435424610506743e-06,-0.00022220611572265625,0.0,-0.0,-0.01041499468373021
1691,35848702831,-23.800546646118164,61.24238586425781,0.0016788863576948643,0.9999864410163584,0.0,-0.0,-0.005207473805720072,-1.0237913294908196e-10,-9.336961065420368e-11,2.8610227786884934e-07,-1.275863610317174e-07,1.359592118888031e-07,5.859564569665743e-12,-1.0237913627975104e-08,-9.336961426242851e-09,2.8610227673198096e-05,0.0,-0.0,-0.01041499468373021
1692,35858702831,-23.800546646118164,61.24238586425781,0.0016788863576948643,0.9999864410163584,0.0,-0.0,-0.005207473805720072,-1.9719961774633532e-10,-1.1147042316972389e-10,5.722045557376987e-07,-2.5573601192263595e-07,2.7193499363420415e-07,1.2441535648943791e-11,-9.482048923814546e-09,-1.8100811960408691e-09,2.8610227673198096e-05,0.0,-0.0,-0.01041499468373021
1693,35868702831,-23.800546646118164,61.24238586425781,0.0016788863576948643,0.9999864410163584,0.0,-0.0,-0.005207473805720072,-2.9169699988784714e-10,-1.1870171512384786e-10,8.583068620282575e-07,-3.839694784346648e-07,4.079112443378108e-07,1.4087802972795327e-11,-9.449737881084275e-09,-7.231292231679731e-10,2.8610231311176904e-05,0.0,-0.0,-0.01041499468373021
1694,35878702831,-23.800546646118164,61.24238586425781,0.0016788863576948643,0.9999864410163584,0.0,-0.0,-0.005207473805720072,-3.8616843056615835e-10,-1.2436031371354517e-10,1.1444091114753974e-06,-5.122114430378133e-07,5.438881203190249e-07,1.4398300260398678e-11,-9.44714351192033e-09,-5.658598589697306e-10,2.8610225854208693e-05,0.0,-0.0,-0.01041499468373021
1695,35888702830,-23.800546646118164,61.24238586425781,0.0016788863576948643,0.9999864410163584,0.0,-0.0,-0.005207473805720072,-4.80636364041942e-10,-1.2979506358590243e-10,1.430511474609375e-06,-6.404563350770331e-07,6.79864797348273e-07,1.4450040122793162e-11,-9.446793569622969e-09,-5.434749872357258e-10,2.8610236768145114e-05,0.0,-0.0,-0.01041499468373021
1696,35898702830,-23.800546646118164,61.24238586425781,0.0016788863576948643,0.9999864410163584,0.0,-0.0,-0.005207473805720072,-5.751038534285158e-10,-1.3519556307795e-10,1.716613724056515e-06,-7.686998060307815e-07,8.158414743775211e-07,1.4456497630932486e-11,-9.446749160701984e-09,-5.400499492047572e-10,2.8610225854208693e-05,0.0,-0.0,-0.01041499468373021
1697,35908702830,-23.800546646118164,61.24238586425781,0.0016788863576948643,0.9999864410163584,0.0,-0.0,-0.005207473805720072,-6.695713428150896e-10,-1.4059206576710892e-10,2.002715973503655e-06,-8.969430496108544e-07,9.518182650936069e-07,1.4457666834555294e-11,-9.446749160701984e-09,-5.396502689158922e-10,2.8610225854208693e-05,0.0,-0.0,-0.01041499468373021
1698,35918702830,-23.800546646118164,61.24238586425781,0.0016788863576948643,0.9999864410163584,0.0,-0.0,-0.005207473805720072,1.4689009120161245e-08,2.647797359145443e-08,1.115798909268051e-06,3.5341294278623536e-05,-1.9446151782176457e-05,3.0580268872704153e-10,1.5358580185420578e-06,2.661856569829979e-06,-8.869170414982364e-05,0.0,-0.0,-0.01041499468373021
1699,35928702829,-23.800546646118164,61.24238586425781,0.0016788863576948643,0.9999864410163584,0.0,-0.0,-0.005207473805720072,-1.9549144525399242e-09,-2.3076644595221296e-08,1.058578504853358e-06,-3.132149458906497e-06,1.048942749548587e-06,-2.241276275682935e-09,-1.664392357270117e-06,-4.9554619181435555e-06,-5.722040441469289e-06,0.0,-0.0,-0.01041499468373021
1700,35938702829,-23.800546646118164,61.24238586425781,0.0016788863576948643,0.9999864410163584,0.0,-0.0,-0.005207473805720072,-9.160675551456166e-10,-4.636389050460821e-09,1.306533818024036e-06,-4.879099378740648e-06,1.226964400302677e-06,1.3523521191771692e-09,1.0388468751898472e-07,1.8440255189489108e-06,2.47955322265625e-05,0.0,-0.0,-0.01041499468373021
1701,35948702829,-23.800546646118164,61.24238586425781,0.0016788863576948643,0.9999864410163584,0.0,-0.0,-0.005207473805720072,-9.676482948250964e-10,-2.04079020349468e-09,1.554489131194714e-06,-6.50728497930686e-06,1.402229827363044e-06,3.8940750624050224e-10,-5.158073967947985e-09,2.5955989713111194e-07,2.47955322265625e-05,0.0,-0.0,-0.01041499468373021
1702,35958702829,-23.800546646118164,61.24238586425781,0.0016788863576948643,0.9999864410163584,0.0,-0.0,-0.005207473805720072,-1.313443021011551e-09,-1.2027501217204417e-09,1.8119811784345075e-06,-7.394597560050897e-06,1.895203808999213e-06,1.6784344747389213e-10,-3.457947173046705e-08,8.38040108419591e-08,2.5749204723979346e-05,0.0,-0.0,-0.01041499468373021
1703,35968702828,-23.800546646118164,61.24238586425781,0.0016788863576948643,0.9999864410163584,0.0,-0.0,-0.005207473805720072,-1.6518182377467383e-09,-1.1161277457816254e-09,2.069473111987463e-06,-8.276281732833013e-06,2.3881441393314162e-06,7.358202241958267e-11,-3.383752300578635e-08,8.662237149792418e-09,2.5749193810042925e-05,0.0,-0.0,-0.01041499468373021
1704,35978702828,-23.800546646118164,61.24238586425781,0.0016788863576948643,0.9999864410163584,0.0,-0.0,-0.005207473805720072,-1.1136951361123693e-09,6.335570645887856e-08,1.5640258652638295e-06,7.889873086242005e-05,1.6530102584511042e-06,5.980770101388089e-09,5.3812311051615325e-08,6.44718329567695e-06,-5.054472421761602e-05,0.0,-0.0,-0.01041499468373021
1705,35988702828,-23.800546646118164,61.24238586425781,0.0016788863576948643,0.9999864410163584,0.0,-0.0,-0.005207473805720072,-1.6330223839844393e-09,1.1417646383904412e-08,1.7738342421580455e-06,7.78063913458027e-05,1.7150783833130845e-06,-4.186299751296474e-09,-5.193272301085017e-08,-5.193805918679573e-06,2.0980838598916307e-05,0.0,-0.0,-0.01041499468373021
1706,35998702828,-23.800546646118164,61.24238586425781,0.0016788863576948643,0.9999864410163584,0.0,-0.0,-0.005207473805720072,-1.7378706473891725e-08,-3.322768904467921e-08,2.4127959932229714e-06,2.5726518288138323e-05,2.2538453777087852e-05,-2.3689425976414213e-09,-1.574568386786268e-06,-4.464533503778512e-06,6.389617192326114e-05,0.0,-0.0,-0.01041499468373021
1707,36008702828,-23.800546646118164,61.24238586425781,0.0016788863576948643,0.9999864410163584,0.0,-0.0,-0.005207473805720072,1.4235570056086999e-08,-4.996304703297483e-09,1.7642973944020923e-06,2.3617740225745365e-05,-1.7676427887636237e-05,-2.10882333817608e-09,3.1614276849722955e-06,2.8231384021637496e-06,-6.484986079158261e-05,0.0,-0.0,-0.01041499468373021
1708,36018702827,-23.800546646118164,61.24238586425781,0.0016788863576948643,0.9999864410163584,0.0,-0.0,-0.005207473805720072,1.2201727628280423e-08,-2.0286299307059608e-09,1.964569037227193e-06,2.057207893813029e-05,-1.7573942386661656e-05,3.5305267043206356e-10,-2.0338424633337127e-07,2.967674674891896e-07,2.0027164282510057e-05,0.0,-0.0,-0.01041499468373021
1709,36028702827,-23.800546646118164,61.24238586425781,0.0016788863576948643,0.9999864410163584,0.0,-0.0,-0.005207473805720072,1.153523498942377e-08,-6.522562046029634e-08,1.3923644246460753e-06,-6.914586992934346e-05,-1.6656229490763508e-05,-5.798857394267998e-09,-6.664926388566528e-08,-6.319699423329439e-06,-5.722046262235381e-05,0.0,-0.0,-0.01041499468373021
1710,36038702827,-23.800546646118164,61.24238586425781,0.0016788863576948643,0.9999864410163584,0.0,-0.0,-0.005207473805720072,1.1982144165756381e-08,-1.3746793925406564e-08,1.5449523971255985e-06,-7.132120663300157e-05,-1.658376640989445e-05,4.1720040755421905e-09,4.469091763326105e-08,5.147882802702952e-06,1.5258796338457614e-05,0.0,-0.0,-0.01041499468373021
1711,36048702827,-23.800546646118164,61.24238586425781,0.0016788863576948643,0.9999864410163584,0.0,-0.0,-0.005207473805720072,-2.802230447684906e-09,3.101738954569555e-08,2.117157009706716e-06,-2.210258571722079e-05,3.1471397505811183e-06,6.739106606090672e-09,-1.4784374116061372e-06,4.476418325793929e-06,5.722046262235381e-05,0.0,-0.0,-0.01041499468373021
1712,36058702826,-23.800546646118164,61.24238586425781,0.0016788863576948643,0.9999864410163584,0.0,-0.0,-0.005207473805720072,-2.3771227208868595e-09,2.929434694820543e-09,7.820129326319147e-07,-2.277226303704083e-05,3.6125911719864234e-06,-2.0062833616663056e-09,4.251077356798305e-08,-2.808795443343115e-06,-0.00013351441884879023,0.0,-0.0,-0.01041499468373021
1713,36068702826,-23.800546646118164,61.24238586425781,0.0016788863576948643,0.9999864410163584,0.0,-0.0,-0.005207473805720072,-2.722616132544431e-09,-1.2009981897875832e-09,8.964538551481382e-07,-2.3683003746555187e-05,4.0787381294649094e-06,-5.44097933374843e-10,-3.454934116575714e-08,-4.1304329556624e-07,1.1444091796875e-05,0.0,-0.0,-0.01041499468373021
1714,36078702826,-23.800546646118164,61.24238586425781,0.0016788863576948643,0.9999864410163584,0.0,-0.0,-0.005207473805720072,-3.0505655779222707e-09,-1.8339277874090953e-09,1.0108947208209429e-06,-2.4619948817417026e-05,4.545127012534067e-06,-6.861231027777137e-11,-3.279494364960556e-08,-6.329295842988358e-08,1.144408633990679e-05,0.0,-0.0,-0.01041499468373021
1715,36088702826,-23.800546646118164,61.24238586425781,0.0016788863576948643,0.9999864410163584,0.0,-0.0,-0.005207473805720072,-3.372379930866032e-09,-1.9622345970304877e-09,1.1253356433371664e-06,-2.556067192927003e-05,5.011556822864804e-06,2.65379003494548e-11,-3.2181436182554535e-08,-1.283068051805003e-08,1.1444091796875e-05,0.0,-0.0,-0.01041499468373021
1716,36098702826,-23.800546646118164,61.24238586425781,0.0016788863576948643,0.9999864410163584,0.0,-0.0,-0.005207473805720072,-3.6931975255782845e-09,-2.0177279846933516e-09,1.23977656585339e-06,-2.6501935280975886e-05,5.477992544911103e-06,4.3061401666655286e-11,-3.208175769486843e-08,-5.5493387662863825e-09,1.1444091796875e-05,0.0,-0.0,-0.01041499468373021
1717,36108702825,-23.800546646118164,61.24238586425781,0.0016788863576948643,0.9999864410163584,0.0,-0.0,-0.005207473805720072,1.1507723662873559e-08,2.5551251781052997e-08,1.6689300537109375e-06,1.0274957276124042e-05,-1.4681455468235072e-05,4.204276093933146e-10,1.5200921552604996e-06,2.7568980840442237e-06,4.291534787626006e-05,0.0,-0.0,-0.01041499468373021
1718,36118702825,-23.800546646118164,61.24238586425781,0.0016788863576948643,0.9999864410163584,0.0,-0.0,-0.005207473805720072,-5.263556257517621e-09,-2.3705711171828625e-08,1.4781951449549524e-06,-2.74680060101673e-05,5.996614618197782e-06,-2.1839052788408253e-09,-1.6771278978922055e-06,-4.925695975543931e-06,-1.9073489966103807e-05,0.0,-0.0,-0.01041499468373021
1719,36128702825,-23.800546646118164,61.24238586425781,0.0016788863576948643,0.9999864410163584,0.0,-0.0,-0.005207473805720072,1.0861515242766018e-08,2.2727030923874736e-08,1.9073486328125e-06,9.649637831898872e-06,-1.3866888366464991e-05,1.8303011328768548e-09,1.612507048776024e-06,4.643274223781191e-06,4.291534787626006e-05,0.0,-0.0,-0.01041499468373021
1720,36138702825,-23.800546646118164,61.24238586425781,0.0016788863576948643,0.9999864410163584,0.0,-0.0,-0.005207473805720072,-6.058190837876509e-09,-2.3784446412378202e-08,1.716613724056515e-06,-2.763176780717913e-05,7.104382802936016e-06,-1.7607265645480652e-09,-1.6919706240514643e-06,-4.651147719414439e-06,-1.9073489966103807e-05,0.0,-0.0,-0.01041499468373021
1721,36148702824,-23.800546646118164,61.24238586425781,0.0016788863576948643,0.9999864410163584,0.0,-0.0,-0.005207473805720072,1.0085249080304948e-08,2.2715148872975988e-08,2.1457672119140625e-06,9.485373084316961e-06,-1.2759086530422792e-05,1.8775350163480198e-09,1.6143440006999299e-06,4.649959464586573e-06,4.291534787626006e-05,0.0,-0.0,-0.01041499468373021
1722,36158702824,-23.800546646118164,61.24238586425781,0.0016788863576948643,0.9999864410163584,0.0,-0.0,-0.005207473805720072,-6.239361916016151e-09,4.0921470656485326e-08,1.182556161438697e-06,6.055237099644728e-05,7.359531537076691e-06,4.233081885018919e-09,-1.6324611351592466e-06,1.8206321783509338e-06,-9.632110595703125e-05,0.0,-0.0,-0.01041499468373021
1723,36168702824,-23.800546646118164,61.24238586425781,0.0016788863576948643,0.9999864410163584,0.0,-0.0,-0.005207473805720072,-6.060543622510295e-09,8.222738934193785e-09,1.2493132999225054e-06,6.0401380324037746e-05,8.063524546741974e-06,-2.659496178836207e-09,1.7881829350585576e-08,-3.2698733321012696e-06,6.675713848380838e-06,0.0,-0.0,-0.01041499468373021
1724,36178702824,-23.800546646118164,61.24238586425781,0.0016788863576948643,0.9999864410163584,0.0,-0.0,-0.005207473805720072,-6.345768799320695e-09,3.008314042318716e-09,1.325607286162267e-06,5.9378482546890154e-05,8.449628694506828e-06,-7.203200813599153e-10,-2.852251768103997e-08,-5.214424732002954e-07,7.629398169228807e-06,0.0,-0.0,-0.01041499468373021
1725,36188702824,-23.800546646118164,61.24238586425781,0.0016788863576948643,0.9999864410163584,0.0,-0.0,-0.005207473805720072,-6.3778400338776464e-09,1.7730104051594253e-09,1.3923644246460753e-06,5.772135409642942e-05,8.517089554516133e-06,-1.8448895189315806e-10,-3.207123455695182e-09,-1.23530369933178e-07,6.675713848380838e-06,0.0,-0.0,-0.01041499468373021
1726,36198702823,-23.800546646118164,61.24238586425781,0.0016788863576948643,0.9999864410163584,0.0,-0.0,-0.005207473805720072,-2.1989055909443778e-08,-3.556273853178027e-08,1.8882750509874313e-06,5.403790510172257e-06,2.9288583391462453e-05,-1.292516316198089e-09,-1.5611215076205553e-06,-3.7335748857003637e-06,4.9591064453125e-05,0.0,-0.0,-0.01041499468373021
1727,36208702823,-23.800546646118164,61.24238586425781,0.0016788863576948643,0.9999864410163584,0.0,-0.0,-0.005207473805720072,-5.394133584246674e-09,3.04902094683257e-08,1.5449523971255985e-06,5.3298354032449424e-05,8.986965440271888e-06,3.695396877390067e-09,1.6594922271906398e-06,6.605294856854016e-06,-3.433226447668858e-05,0.0,-0.0,-0.01041499468373021
1728,36218702823,-23.800546646118164,61.24238586425781,0.0016788863576948643,0.9999864410163584,0.0,-0.0,-0.005207473805720072,8.54372927960867e-09,-2.279123201276434e-08,1.9359588350198464e-06,1.3214203136158176e-05,-1.1062785233661998e-05,-6.61175514338197e-09,1.3937861922386219e-06,-5.328143743099645e-06,3.910064333467744e-05,0.0,-0.0,-0.01041499468373021
1729,36228702823,-23.800546646118164,61.24238586425781,0.0016788863576948643,0.9999864410163584,0.0,-0.0,-0.005207473805720072,7.547203750846165e-09,-1.420716166933289e-08,1.2683867680607364e-06,-2.508480747565045e-06,-1.0909529919445049e-05,2.704850787793589e-10,-9.965255287625041e-08,8.584070201322902e-07,-6.675720942439511e-05,0.0,-0.0,-0.01041499468373021
1730,36238702822,-23.800546646118164,61.24238586425781,0.0016788863576948643,0.9999864410163584,0.0,-0.0,-0.005207473805720072,7.563694559564738e-09,-4.291154986901802e-09,1.325607286162267e-06,-5.4213846851780545e-06,-1.0804760677274317e-05,9.558178692969932e-10,1.6490808718572225e-09,9.91600700217532e-07,5.7220518101530615e-06,0.0,-0.0,-0.01041499468373021
1731,36248702822,-23.800546646118164,61.24238586425781,0.0016788863576948643,0.9999864410163584,0.0,-0.0,-0.005207473805720072,7.28764559809747e-09,-2.4940975951182054e-09,1.3828276905769599e-06,-7.607400220877025e-06,-1.0382163964095525e-05,3.0594676792006226e-10,-2.7604896146726787e-08,1.7970573651382438e-07,5.722040441469289e-06,0.0,-0.0,-0.01041499468373021
1732,36258702822,-23.800546646118164,61.24238586425781,0.0016788863576948643,0.9999864410163584,0.0,-0.0,-0.005207473805720072,0.0,-0.0,0.0,0.0,-0.0,-0.0,-7.287645757969585e-07,2.494097657290695e-07,-0.00013828277587890625,0.0,-0.0,-0.01041499468373021
1733,36268702822,-23.800546646118164,61.24238586425781,0.0016788863576948643,0.9999864410163584,0.0,-0.0,-0.005207473805720072,-3.170566309496081e-10,-1.5823077292864696e-09,4.768371297814156e-08,-2.1606992959277704e-06,4.223240068768064e-07,-1.0320665849716804e-10,-3.170566387211693e-08,-1.5823077603727143e-07,4.768371127283899e-06,0.0,-0.0,-0.01041499468373021
1734,36278702822,-23.800546646118164,61.24238586425781,0.0016788863576948643,0.9999864410163584,0.0,-0.0,-0.005207473805720072,-6.01834526658962e-10,-1.8997710071744223e-09,1.0490417423625331e-07,-4.330874162405962e-06,8.447779578091286e-07,2.7020426911564255e-13,-2.8477789015823873e-08,-3.174632823288448e-08,5.7220458984375e-06,0.0,-0.0,-0.01041499468373021
1735,36288702821,-23.800546646118164,61.24238586425781,0.0016788863576948643,0.9999864410163584,0.0,-0.0,-0.005207473805720072,-8.837362508451463e-10,-2.0346968554463274e-09,1.6212463549436507e-07,-6.50241690891562e-06,1.2672480806941167e-06,2.756437439410675e-11,-2.819017197452922e-08,-1.3492584827190512e-08,5.7220458984375e-06,0.0,-0.0,-0.01041499468373021
1736,36298702821,-23.800546646118164,61.24238586425781,0.0016788863576948643,0.9999864410163584,0.0,-0.0,-0.005207473805720072,-1.4055715480409958e-09,-1.6579243533598742e-09,2.0980834847250662e-07,-8.01173155196011e-06,2.0081545244465815e-06,1.1263870391964304e-10,-5.218353038571877e-08,3.767724976455611e-08,4.768371127283899e-06,0.0,-0.0,-0.01041499468373021
1737,36308702821,-23.800546646118164,61.24238586425781,0.0016788863576948643,0.9999864410163584,0.0,-0.0,-0.005207473805720072,-1.914445046935498e-09,-1.6627803578472822e-09,2.5749204723979346e-07,-9.518186743662227e-06,2.749058694462292e-06,8.368836873495766e-11,-5.0887351221717836e-08,-4.856004487407972e-10,4.7683697630418465e-06,0.0,-0.0,-0.01041499468373021
1738,36318702821,-23.800546646118164,61.24238586425781,0.0016788863576948643,0.9999864410163584,0.0,-0.0,-0.005207473805720072,-2.4235755624602007e-09,-1.7226804427394882e-09,3.0517577442878974e-07,-1.102423539123265e-05,3.489957634883467e-06,7.557523357126783e-11,-5.091305155247028e-08,-5.9900084892205996e-09,4.768372491525952e-06,0.0,-0.0,-0.01041499468373021
1739,36328702820,-23.800546646118164,61.24238586425781,0.0016788863576948643,0.9999864410163584,0.0,-0.0,-0.005207473805720072,-2.6842879030652966e-09,-1.198204535590719e-09,3.433227391269611e-07,-1.1721263945219107e-05,3.9004694372124504e-06,9.407429696350889e-11,-2.6071234060509596e-08,5.2447589382609294e-08,3.8146963561302982e-06,0.0,-0.0,-0.01041499468373021
1740,36338702820,-23.800546646118164,61.24238586425781,0.0016788863576948643,0.9999864410163584,0.0,-0.0,-0.005207473805720072,-2.718039349147716e-09,-6.46827646999526e-10,3.8146970382513246e-07,-1.1728389836207498e-05,3.9815249692765065e-06,6.6116674635186e-11,-3.3751446082419534e-09,5.513768996934232e-08,3.8146963561302982e-06,0.0,-0.0,-0.01041499468373021
1741,36348702820,-23.800546646118164,61.24238586425781,0.0016788863576948643,0.9999864410163584,0.0,-0.0,-0.005207473805720072,-2.773299145886199e-09,-5.668944758063788e-10,4.1961669694501325e-07,-1.1731983249774203e-05,4.062515472469386e-06,2.2082792192068545e-11,-5.525979673848269e-09,7.993317119314725e-09,3.8146990846144035e-06,0.0,-0.0,-0.01041499468373021
1742,36358702820,-23.800521850585938,61.24238586425781,0.0016799544682726264,0.9999864512798754,1.7243166072570816e-07,8.335786815263419e-07,-0.005205502469192978,0.002727947197854519,4.562496906146407e-05,8.48770127959142e-07,-0.0007063727825880051,-0.008477011695504189,0.022905167192220688,0.2727949917316437,0.004562553483992815,4.291534423828125e-05,3.361802572253633e-07,1.6689299620762925e-06,-0.010411051956960132
1743,36368702820,-23.797775268554688,61.24235153198242,0.0016562652308493853,0.9999864552419698,-2.3807473417868185e-08,-3.457103689931524e-05,-0.0052046265420857005,0.2716694176197052,-0.0028240338433533907,-8.106231348392612e-07,0.00434557581320405,0.40424641966819763,0.010032623074948788,26.894145965576172,-0.28696587681770325,-0.0001659393310546875,3.122443713107497e-07,-6.914138515907603e-05,-0.010409300096305564
1744,36378702819,-23.792428970336914,61.2422981262207,0.0016178512014448643,0.9999864538574978,-3.3815062611645913e-07,-9.173102898526732e-05,-0.005204198959524466,0.5299670696258545,-0.00553212920203805,-7.438659395120339e-07,0.007008182350546122,0.6546798348426819,0.004906476940959692,25.82976531982422,-0.270809531211853,6.675719305349048e-06,2.784809649293507e-07,-0.00018346309340281521,-0.010408444971924296
1745,36388702819,-23.784643173217773,61.24221420288086,0.001569785992614925,0.9999864460735615,-7.235632903283075e-07,-0.00016313635389062116,-0.0052039461156659465,0.7725940346717834,-0.008058751933276653,-3.9100646631595737e-07,0.008686412125825882,0.8193058371543884,0.002895487705245614,24.262697219848633,-0.2526622712612152,3.528594606905244e-05,2.5079863724611387e-07,-0.0003262758220627087,-0.010407939387436102
1746,36398702819,-23.774723052978516,61.24211120605469,0.001517448341473937,0.9999864311355063,-1.1346742089249906e-06,-0.00024133654919162496,-0.00520377749869448,0.985370397567749,-0.010271524079144001,-3.290176209702622e-06,0.009362680837512016,0.8949329853057861,0.0018983568297699094,21.27763557434082,-0.22127720713615417,-0.00028991696308366954,2.424058114607557e-07,-0.0004826783769838904,-0.010407602331110639
1747,36408702819,-23.762842178344727,61.24198913574219,0.0014632033417001367,0.9999864089844569,-1.559456298189565e-06,-0.0003219209191641633,-0.005203672824127482,1.181676983833313,-0.012313153594732285,-2.422332727292087e-06,0.009678781032562256,0.9239290356636047,0.0011931413318961859,19.630659103393555,-0.20416295528411865,8.678434824105352e-05,2.314721179332954e-07,-0.0006438493621483794,-0.010407393231353175
1748,36418702818,-23.74979591369629,61.24185562133789,0.0014153289375826716,0.9999863839323667,-1.9389446135580775e-06,-0.00039314743492683727,-0.005203593105193516,1.2984871864318848,-0.013528786599636078,-1.6021728015402914e-06,0.008595743216574192,0.816131055355072,0.000912595889531076,11.681020736694336,-0.12156330049037933,8.20159912109375e-05,2.1372220397495793e-07,-0.0007863044235925374,-0.01040723406586615
1749,36428702818,-23.734813690185547,61.24169921875,0.0013650130713358521,0.9999863518069444,-2.332584610925997e-06,-0.0004679502051383357,-0.005203577327419268,1.4921040534973145,-0.015545127913355827,-1.6689300537109375e-06,0.008973835036158562,0.8573956489562988,0.0001848373212851584,19.36168670654297,-0.20163413882255554,-6.67572521706461e-06,2.0492469466624e-07,-0.0009359120491284296,-0.010407202856947127
1750,36438702818,-23.71829605102539,61.24152374267578,0.0013177490327507257,0.99998631638476,-2.6919890366238197e-06,-0.0005385211972938019,-0.005203559446365279,1.6459680795669556,-0.01714666187763214,-1.7547606603329768e-06,0.008321553468704224,0.8081702589988708,0.00018843560246750712,15.386402130126953,-0.16015338897705078,-8.583060662203934e-06,2.2054985345332933e-07,-0.001077055880843495,-0.0104071674868389
1751,36448702818,-23.70049285888672,61.241336822509766,0.001275024376809597,0.999986280199449,-3.020676983589264e-06,-0.0006021781133083897,-0.00520353584251582,1.7750921249389648,-0.018488513305783272,-3.1185149964585435e-06,0.007558444980531931,0.7290512323379517,0.00028122644289396703,12.912405014038086,-0.13418513536453247,-0.00013637542724609375,2.25639874996967e-07,-0.0012043714306503518,-0.010407120673460363
1752,36458702818,-23.681413650512695,61.24113464355469,0.0012362670386210084,0.9999862439142625,-3.3166106660468567e-06,-0.0006598150141900825,-0.005203519519753119,1.9030181169509888,-0.01981937326490879,-4.701614216173766e-06,0.006837478373199701,0.6613548398017883,0.0001713538367766887,12.792598724365234,-0.13308599591255188,-0.00015830992197152227,2.3359072999151531e-07,-0.0013196467745533519,-0.010407088424244038
1753,36468702817,-23.661632537841797,61.24093246459961,0.0012057494604960084,0.9999862130991392,-3.5489490949477753e-06,-0.0007051139588400991,-0.005203500105984255,1.9742954969406128,-0.020563840866088867,-7.06672653905116e-06,0.005364330485463142,0.5191378593444824,0.00023034802870824933,7.127737998962402,-0.07444676011800766,-0.00023651123046875,2.4032102620838343e-07,-0.001410245876369599,-0.010407049933243907
1754,36478702817,-23.640670776367188,61.2407112121582,0.0011776733445003629,0.9999861826549095,-3.76376374564848e-06,-0.0007468365987546883,-0.0052035295896897754,2.092804431915283,-0.021799840033054352,-5.9890744523727335e-06,0.004941998049616814,0.4774002134799957,-0.0003455964324530214,11.850893020629883,-0.12359991669654846,0.00010776521230582148,2.4494947297002316e-07,-0.0014936922840569488,-0.010407109230190054
1755,36488702817,-23.61904525756836,61.24048614501953,0.001156120328232646,0.999986157217762,-3.9272757955506435e-06,-0.0007788439092685273,-0.005203725549553761,2.160022258758545,-0.02249789424240589,-3.986358478869079e-06,0.0037818914279341698,0.3668922483921051,-0.0022342901211231947,6.721782684326172,-0.06980542093515396,0.00020027159189339727,2.513373422250211e-07,-0.0015577077586854033,-0.01040750142227246
1756,36498702817,-23.596452713012695,61.24025344848633,0.0011376570910215378,0.9999861358041189,-4.072289724120178e-06,-0.000806500019200818,-0.005203627646355856,2.256955862045288,-0.023505564779043198,-7.286071650014492e-06,0.0033080847933888435,0.3165522515773773,0.001099271117709577,9.693360328674316,-0.10076705366373062,-0.0003299713134765625,2.4898538711379306e-07,-0.001613020756281076,-0.010407305846379908
1757,36508702816,-23.573238372802734,61.240013122558594,0.0011239242739975452,0.9999861212325418,-4.17499026903424e-06,-0.0008268249517620483,-0.005203237969251326,2.3198513984680176,-0.02416437491774559,-6.017684881953755e-06,0.0023932461626827717,0.23297728598117828,0.004488892387598753,6.289553642272949,-0.06588101387023926,0.00012683868408203125,2.54469663174952e-07,-0.0016536711535332883,-0.010406526663701598
1758,36518702816,-23.549240112304688,61.23976516723633,0.0011132049839943647,0.9999861067082109,-4.256072949335969e-06,-0.0008426199622453218,-0.005203495367530197,2.3984713554382324,-0.02498658373951912,-4.634856850316282e-06,0.0018746607238426805,0.18158726394176483,-0.0029736331198364496,7.861995697021484,-0.0822208821773529,0.0001382828049827367,2.5711086842984765e-07,-0.0016852616015927272,-0.010407041610865501
1759,36528702816,-23.524641036987305,61.23950958251953,0.0011059188982471824,0.9999860941673149,-4.315802851848852e-06,-0.0008533486390514823,-0.005204156941541796,2.459111213684082,-0.025613900274038315,-4.0626523514220025e-06,0.0013192676706239581,0.12307743728160858,-0.007554615847766399,6.063985824584961,-0.06273165345191956,5.7220451708417386e-05,2.5043517766211886e-07,-0.0017067192938679302,-0.010408364869032134
1760,36538702816,-23.49936866760254,61.2392463684082,0.0011013030307367444,0.9999860891202939,-4.348801657926324e-06,-0.0008602626993433075,-0.005203988381585648,2.526405096054077,-0.02631315588951111,-3.3283233733527595e-06,0.0007865540101192892,0.07869328558444977,0.0019340058788657188,6.729388236999512,-0.06992556154727936,7.343290053540841e-05,2.5611223953135833e-07,-0.001720547575776139,-0.010408027812706671
1761,36548702816,-23.47356605529785,61.23897933959961,0.0010994338663294911,0.9999860890450315,-4.362622599819207e-06,-0.0008630044970447723,-0.005203548849386447,2.5801186561584473,-0.026873795315623283,-2.689361508600996e-06,0.00032441262737847865,0.031246209517121315,0.005029341205954552,5.371356010437012,-0.0560639426112175,6.389618647517636e-05,2.562486737858212e-07,-0.0017260312429230452,-0.010407148761487484
1762,36558702815,-23.447147369384766,61.238704681396484,0.001099395682103932,0.9999860890450315,-4.362622599819207e-06,-0.0008630044970447723,-0.005203548849386447,2.641777515411377,-0.02751973271369934,-1.9550323031580774e-06,-3.990996992797591e-05,-2.834795154171843e-08,-0.0013383347541093826,6.165885925292969,-0.06459373980760574,7.343292236328125e-05,2.562486737858212e-07,-0.0017260312429230452,-0.010407148761487484
1763,36568702815,-23.420263290405273,61.238426208496094,0.0011016845237463713,0.9999860900062119,-4.347194536198182e-06,-0.0008596070516895054,-0.005203926489372564,2.68906831741333,-0.028011657297611237,-1.077651972991589e-06,-0.00034158548805862665,-0.03877644240856171,-0.003013643203303218,4.7290802001953125,-0.049192458391189575,8.773802983341739e-05,2.5239605299124077e-07,-0.0017192362810284651,-0.010407904017327874
1764,36578702815,-23.39280891418457,61.23814010620117,0.0011052321642637253,0.9999860942711776,-4.316280665377015e-06,-0.00085436196448302,-0.005203970722323427,2.7455904483795166,-0.028600607067346573,-6.961822123230377e-07,-0.0006710050511173904,-0.060442522168159485,-0.000472125451778993,5.652213096618652,-0.05889497697353363,3.814697629422881e-05,2.597083893254318e-07,-0.001708745923047075,-0.010407992442598444
1765,36588702815,-23.364933013916016,61.237850189208984,0.0011105346493422985,0.9999861010613862,-4.2746560613438264e-06,-0.0008464346210757636,-0.005203961395583474,2.7883007526397705,-0.029045993462204933,-1.411438006471144e-06,-0.0009447906631976366,-0.09037270396947861,0.00010921194188995287,4.271030426025391,-0.04453863948583603,-7.152558100642636e-05,2.6043326078907914e-07,-0.0016928910119597214,-0.010407973717247028
1766,36598702814,-23.336538314819336,61.237552642822266,0.0011166762560606003,0.9999861084843932,-4.23215883108957e-06,-0.000837315215771315,-0.005204010334137893,2.840391159057617,-0.029589492827653885,-1.3351440202313825e-06,-0.0010321085574105382,-0.10457798093557358,-0.0005770627758465707,5.209040641784668,-0.05434993654489517,7.629398169228807e-06,2.505943430221537e-07,-0.0016746519995332314,-0.010408071505193305
1767,36608702814,-23.30775260925293,61.23725509643555,0.0011241149622946978,0.9999861173782459,-4.174220361498693e-06,-0.0008262289226730846,-0.005204073320383859,2.879413366317749,-0.029994653537869453,-1.0108947208209429e-06,-0.0013292845105752349,-0.12738442420959473,-0.0007069319253787398,3.9022207260131836,-0.040516071021556854,3.242493039579131e-05,2.511873042293046e-07,-0.0016524791028637202,-0.010408197381166703
1768,36618702814,-23.27848243713379,61.2369499206543,0.0011320876656100154,0.9999861268075982,-4.113260409222441e-06,-0.0008143677435089484,-0.00520413110879482,2.9278628826141357,-0.030500933527946472,-1.3542174883696134e-06,-0.0014008366269990802,-0.1353786438703537,-0.000680832308717072,4.844951629638672,-0.050627999007701874,-3.4332275390625e-05,2.4974665691897417e-07,-0.0016287564232903239,-0.010408312854167094
1769,36628702814,-23.24885368347168,61.23664474487305,0.0011407851707190275,0.9999861372692986,-4.0452980097342335e-06,-0.000801016485126937,-0.005204193064592698,2.9638869762420654,-0.030875785276293755,-1.4209747405402595e-06,-0.0015708074206486344,-0.1525326371192932,-0.0006766788428649306,3.6024093627929688,-0.03748517483472824,-6.67572521706461e-06,2.468053280516143e-07,-0.001602053552024426,-0.01040843664954589
1770,36638702814,-23.218774795532227,61.236331939697266,0.0011499023530632257,0.9999861477594593,-3.9749734183748375e-06,-0.0007874268126026033,-0.0052042513785616204,3.009324550628662,-0.03134940564632416,1.7261504581256304e-06,-0.00161577551625669,-0.15561950206756592,-0.0006633216398768127,4.543757438659668,-0.047362037003040314,0.0003147125244140625,2.460977430223021e-07,-0.0015748738344832681,-0.010408553162843582
1771,36648702813,-23.188356399536133,61.23601531982422,0.0011597824050113559,0.9999861588403881,-3.8997039789637184e-06,-0.0007728239026777292,-0.005204311256441815,3.0429203510284424,-0.03170006349682808,1.1348723774062819e-06,-0.001743993954733014,-0.16829808056354523,-0.0007009512046352029,3.3595800399780273,-0.03506578505039215,-5.91278076171875e-05,2.4473255917278806e-07,-0.001545667617800128,-0.010408672797033175
1772,36658702813,-23.157508850097656,61.23569107055664,0.0011696242727339268,0.9999861697370585,-3.829091646590659e-06,-0.0007581612805018557,-0.005204374258051041,3.0858471393585205,-0.03214811906218529,1.1348723774062819e-06,-0.0016791316447779536,-0.1675330400466919,-0.0007271849317476153,4.2926788330078125,-0.044805556535720825,0.0,2.3343299326241726e-07,-0.0015163420270017198,-0.010408798673006573
1773,36668702813,-23.126346588134766,61.2353630065918,0.0011800002539530396,0.9999861809276014,-3.7537957692139886e-06,-0.0007428430914843457,-0.0052044330989128845,3.1174776554107666,-0.03247576951980591,1.535415663056483e-06,-0.0017897440120577812,-0.17676378786563873,-0.0006770730251446366,3.1630516052246094,-0.03276504576206207,4.0054328565020114e-05,2.2466680271856905e-07,-0.0014857052714928006,-0.010408916226601565
1774,36678702813,-23.094778060913086,61.23503875732422,0.0011901473626494408,0.9999861918861844,-3.6652445180767496e-06,-0.0007275845941101392,-0.005204483085919052,3.158311367034912,-0.03289918601512909,1.7642973944020923e-06,-0.0019066004315391183,-0.1730612963438034,-0.0005722199566662312,4.083371162414551,-0.042341649532318115,2.288817267981358e-05,2.430158686181168e-07,-0.0014551877600619868,-0.010409016095142443
1775,36688702812,-23.06290626525879,61.23470687866211,0.0012006759643554688,0.9999862028043622,-3.580935946482162e-06,-0.0007119684025182272,-0.005204545040961904,3.188347101211548,-0.03321486711502075,1.6117095356094069e-06,-0.0019049079855903983,-0.17961055040359497,-0.0007196079823188484,3.003573417663574,-0.03156810998916626,-1.5258785424521193e-05,2.491704106937837e-07,-0.0014239549141997021,-0.01040913989052124
1776,36698702812,-23.03064727783203,61.23436737060547,0.0012108993250876665,0.9999862131446978,-3.5081119713171357e-06,-0.0006967693807663828,-0.005204615322017275,3.227428913116455,-0.03362457826733589,2.2602080207434483e-06,-0.0017370854038745165,-0.17373424768447876,-0.0007929640123620629,3.9081811904907227,-0.04097111523151398,6.484984623966739e-05,2.3670620897006924e-07,-0.0013935565168098313,-0.010409280330656849
1777,36708702812,-22.998098373413086,61.234031677246094,0.001221351558342576,0.9999862235599836,-3.42342263831565e-06,-0.0006812128136498038,-0.005204673632928448,3.256173610687256,-0.03392079845070839,1.1253356433371664e-06,-0.0018991989782080054,-0.1783037781715393,-0.0006769640021957457,2.874469757080078,-0.029622018337249756,-0.00011348723637638614,2.4423001443025855e-07,-0.0013624429150256522,-0.01040939684395454
1778,36718702812,-22.965173721313477,61.23368835449219,0.0012313842307776213,0.9999862332190033,-3.346937995984889e-06,-0.0006663714175889237,-0.005204739225094729,3.29378342628479,-0.03431455418467522,1.077651972991589e-06,-0.0017694530542939901,-0.17076843976974487,-0.000742848205845803,3.760981559753418,-0.03937557339668274,-4.768367034557741e-06,2.4279528800147726e-07,-0.0013327597220300898,-0.010409527921414441
1779,36728702812,-22.931970596313477,61.23334503173828,0.001241607591509819,0.9999862429177311,-3.2600495773832586e-06,-0.0006511725335851907,-0.00520479961037537,3.321486234664917,-0.034602321684360504,1.3160705520931515e-06,-0.0018999743042513728,-0.1739063709974289,-0.000716653885319829,2.7702808380126953,-0.028776749968528748,2.384185791015625e-05,2.584358601290068e-07,-0.0013023614546773816,-0.010409648595901336
1780,36738702811,-22.89840316772461,61.23299026489258,0.0012511825188994408,0.9999862518788711,-3.1856428277857684e-06,-0.0006366887984043507,-0.005204869880488283,3.3578548431396484,-0.03498292341828346,6.647109785262728e-06,-0.0017090145265683532,-0.16519716382026672,-0.0007660163100808859,3.6368608474731445,-0.03806017339229584,0.0005331038846634328,2.565668457691202e-07,-0.00127339359611329,-0.010409789036036945
1781,36748702811,-22.864566802978516,61.23263931274414,0.001261215191334486,0.9999862607675,-3.1082201418390834e-06,-0.0006221454559501351,-0.005204920902773938,3.3847203254699707,-0.035258758813142776,5.302429144649068e-06,-0.0017616819823160768,-0.16729243099689484,-0.0006046876078471541,2.6865482330322266,-0.027583539485931396,-0.00013446806406136602,2.6008110326316177e-07,-0.0012443064934710931,-0.010409890985172426
1782,36758702811,-22.83037757873535,61.23228454589844,0.0012703322572633624,0.999986268946414,-3.0353635433666075e-06,-0.0006083769914040102,-0.005204977123194541,3.4200351238250732,-0.03562760353088379,5.178451374376891e-06,-0.0016577064525336027,-0.15788768231868744,-0.0006326757720671594,3.531479835510254,-0.03688447177410126,-1.2397777027217671e-05,2.62533110160996e-07,-0.0012167691737327811,-0.010410003337280913
1783,36768702811,-22.795927047729492,61.2319221496582,0.0012797164963558316,0.9999862770285394,-2.9663564219412144e-06,-0.0005944296381975348,-0.005205035946789558,3.446233034133911,-0.03590105473995209,4.9686432248563506e-06,-0.0016176289645954967,-0.15929794311523438,-0.0006708078435622156,2.619791030883789,-0.027345120906829834,-2.098081495205406e-05,2.5542402038807806e-07,-0.0011888741217601524,-0.010410120890875904
1784,36778702810,-22.761133193969727,61.2315673828125,0.0012884902535006404,0.9999862844243389,-2.8918139925740384e-06,-0.000581436084014077,-0.005205082796916395,3.4806535243988037,-0.036256883293390274,3.881454176735133e-06,-0.0016346508637070656,-0.1493823230266571,-0.0005444616544991732,3.442049026489258,-0.035582855343818665,-0.00010871890117414296,2.6929743954151365e-07,-0.0011628865849257254,-0.010410214517632977
1785,36788702810,-22.726078033447266,61.231201171875,0.0012973403790965676,0.9999862916080483,-2.8244855991628114e-06,-0.0005683232465112028,-0.005205150976963885,3.5063250064849854,-0.0365295484662056,2.9945372261863668e-06,-0.0015545710921287537,-0.1503012329339981,-0.0007754175458103418,2.567148208618164,-0.027266517281532288,-8.869169687386602e-05,2.675230164233192e-07,-0.001136660559935087,-0.010410350796579385
1786,36798702810,-22.69068717956543,61.23082733154297,0.0013056182069703937,0.999986298180519,-2.765624227447169e-06,-0.0005560448244848057,-0.005205214474591434,3.539980411529541,-0.03687950223684311,2.708434976739227e-06,-0.0014016595669090748,-0.14015719294548035,-0.0007235376397147775,3.3655405044555664,-0.03499537706375122,-2.8610225854208693e-05,2.5749263036351056e-07,-0.0011121034318892769,-0.010410477712850084
1787,36808702810,-22.655046463012695,61.2304573059082,0.0013138961512595415,0.9999863046861743,-2.700784036760961e-06,-0.000543766433493686,-0.005205261843679076,3.5652453899383545,-0.03713855892419815,1.2493132999225054e-06,-0.001477359444834292,-0.1408548802137375,-0.000556049810256809,2.5264978408813477,-0.02590566873550415,-0.00014591217041015625,2.5939939232748244e-07,-0.0010875463038434667,-0.010410572379904457
1788,36818702809,-22.61907386779785,61.23008346557617,0.0013215637300163507,0.9999863105852047,-2.6379516089060705e-06,-0.0005324417047945625,-0.005205299324980893,3.598245859146118,-0.03747963532805443,2.317428425158141e-06,-0.0014046970754861832,-0.13062800467014313,-0.00042104098247364163,3.300046920776367,-0.03410764038562775,0.00010681150888558477,2.67206050839478e-07,-0.0010648964958801142,-0.010410647281310116
1789,36828702809,-22.58285140991211,61.229705810546875,0.0013292693765833974,0.999986316411205,-2.5795691303752685e-06,-0.0005209381818776164,-0.005205344090996266,3.623209238052368,-0.037741124629974365,1.802444444365392e-06,-0.0013487747637555003,-0.13117533922195435,-0.0005103158764541149,2.496337890625,-0.026148930191993713,-5.149839853402227e-05,2.642574518280176e-07,-0.001041889150738189,-0.010410736746877985
1790,36838702809,-22.546302795410156,61.22932434082031,0.0013363647740334272,0.9999863216402688,-2.5255390472529385e-06,-0.0005103882765628346,-0.005205384692190737,3.6556484699249268,-0.03807813301682472,8.964538551481382e-07,-0.0012496395502239466,-0.12098246812820435,-0.00045360196963883936,3.2439231872558594,-0.033700838685035706,-9.059906005859375e-05,2.6252577652218717e-07,-0.0010207890606601404,-0.01041081789006745
1791,36848702809,-22.509506225585938,61.228939056396484,0.0013434982392936945,0.9999863267905148,-2.4666738444888045e-06,-0.0004997788385403594,-0.005205424770548147,3.6804039478302,-0.03833579272031784,6.00814814788464e-07,-0.0013065631501376629,-0.12146826088428497,-0.00046080112224444747,2.4755477905273438,-0.02576597034931183,-2.956390380859375e-05,2.698421923913866e-07,-0.0009995698565411486,-0.010410897992959611
1792,36858702809,-22.472389221191406,61.228553771972656,0.0013500213390216231,0.9999863314256627,-2.411859447712987e-06,-0.0004900634293824336,-0.005205458083861579,3.712369680404663,-0.038667939603328705,1.1539458455445128e-06,-0.0012095702113583684,-0.11149266362190247,-0.0004110837180633098,3.196573257446289,-0.033214688301086426,5.5313103075604886e-05,2.7835645180637145e-07,-0.0009801387284265092,-0.010410964571986864
1793,36868702808,-22.435028076171875,61.2281608581543,0.0013566588750109076,0.9999863359462907,-2.361755435540094e-06,-0.000480288405329368,-0.005205500761881509,3.737013578414917,-0.03892539069056511,1.9550323031580774e-06,-0.0011570672504603863,-0.11197227239608765,-0.0004586114373523742,2.4643898010253906,-0.025745108723640442,8.0108642578125e-05,2.768371186787784e-07,-0.0009605884212523455,-0.01041104987636553
1794,36878702808,-22.397350311279297,61.2277717590332,0.0013626479776576161,0.99998634004067,-2.3179797957286615e-06,-0.00047134780797157446,-0.005205531474912044,3.7685818672180176,-0.03925206512212753,1.1920928955078125e-06,-0.0010319483699277043,-0.10214366763830185,-0.0003500222519505769,3.1568288803100586,-0.03266744315624237,-7.629393803654239e-05,2.7133555618328434e-07,-0.0009427070110230097,-0.010411111253906279
1795,36888702808,-22.35942840576172,61.22737503051758,0.001368675148114562,0.9999863440226288,-2.2710839931256044e-06,-0.0004624072268192052,-0.005205568427732216,3.793074607849121,-0.039508990943431854,9.72747784544481e-07,-0.0010753301903605461,-0.10287356376647949,-0.000446827441919595,2.4492740631103516,-0.02569258213043213,-2.1934511096333154e-05,2.720790792174952e-07,-0.0009248256007936739,-0.010411185115014637
1796,36898702808,-22.321191787719727,61.22697448730469,0.0013741683214902878,0.9999863475865013,-2.2288203985945975e-06,-0.0004542415233872478,-0.005205602777771672,3.824172019958496,-0.039831917732954025,6.294250169958104e-07,-0.0009702738025225699,-0.09344317764043808,-0.00038460330688394606,3.1097412109375,-0.0322926789522171,-3.4332275390625e-05,2.7162204430714087e-07,-0.0009084939734682231,-0.01041125377463649
1797,36908702807,-22.28271484375,61.2265739440918,0.0013796996790915728,0.9999863511693722,-2.184961833950338e-06,-0.0004459565825451259,-0.005205630885621974,3.8483543395996094,-0.04008231684565544,2.0980834847250662e-07,-0.0009944188641384244,-0.09469328820705414,-0.00033402585540898144,2.418231964111328,-0.0250399112701416,-4.196166628389619e-05,2.7310680456606374e-07,-0.0008919238579865612,-0.010411309950690733
1798,36918702807,-22.243932723999023,61.22616958618164,0.001384735107421875,0.9999863543126098,-2.1455200632548456e-06,-0.0004385061108885475,-0.005205660031424816,3.8789305686950684,-0.040400829166173935,6.580352760465757e-07,-0.0009006342152133584,-0.08576541393995285,-0.0003222586528863758,3.0576229095458984,-0.031851232051849365,4.482269287109375e-05,2.744460032062054e-07,-0.0008770227044683085,-0.010411368207339579
1799,36928702807,-22.20490837097168,61.225765228271484,0.0013898467877879739,0.999986357454433,-2.1010710441084372e-06,-0.0004309364521010812,-0.005205688655201086,3.9029271602630615,-0.040650781244039536,5.531310875994677e-07,-0.0009644365054555237,-0.08706442266702652,-0.0003369209880474955,2.3996591567993164,-0.02499520778656006,-1.0490419299458154e-05,2.845573450190985e-07,-0.0008618831278124259,-0.010411425423691124
1800,36938702807,-22.165584564208984,61.2253532409668,0.00139446253888309,0.9999863602449032,-2.06525238245612e-06,-0.00042402240456086183,-0.005205720400274264,3.9330379962921143,-0.04096550866961479,2.8610228852699038e-08,-0.000817886262666434,-0.07873080670833588,-0.00036794805782847106,3.0110836029052734,-0.031472742557525635,-5.245208740234375e-05,2.842358395636137e-07,-0.0008480548459042172,-0.010411488881826473
1801,36948702807,-22.126022338867188,61.224945068359375,0.0013991546584293246,0.999986363039501,-2.0281220668417914e-06,-0.00041704877349582625,-0.005205746943402239,3.9569060802459717,-0.04121236130595207,1.0204314548900584e-06,-0.0008438691147603095,-0.08012595772743225,-0.0003054039552807808,2.386808395385742,-0.024685263633728027,9.918212890625e-05,2.859120363680657e-07,-0.0008341073849364841,-0.010411541936988815
