frame,timestamp,acc x (m/s^2),acc y (m/s^2),acc z (m/s^2),gyro x (rad/s),gyro y (rad/s),gyro z (rad/s),x (Ground truth),y (Ground truth),z (Ground truth),yaw (Ground Truth),pitch (Ground Truth),roll (Ground Truth)
1538,34.3187028658722,0,0,9.8100004196167,0,0,0,-23.8005466461182,61.2423858642578,0.001868057181127,-0.596735239028931,0,0
1539,34.3287028656487,0,0,9.8100004196167,0,0,0,-23.8005466461182,61.2423858642578,0.001868057181127,-0.596735239028931,0,0
1540,34.3387028654251,0,0,9.8100004196167,0,0,0,-23.8005466461182,61.2423858642578,0.001868057181127,-0.596735239028931,0,0
1541,34.3487028652016,0,0,9.8100004196167,0,0,0,-23.8005466461182,61.2423858642578,0.001868057181127,-0.596735239028931,0,0
1542,34.3587028649781,0,0,9.8100004196167,0,0,0,-23.8005466461182,61.2423858642578,0.001868057181127,-0.596735239028931,0,0
1543,34.3687028647546,0,0,9.8100004196167,0,0,0,-23.8005466461182,61.2423858642578,0.001868057181127,-0.596735239028931,0,0
1544,34.3787028645311,0,0,9.8100004196167,0,0,0,-23.8005466461182,61.2423858642578,0.001868057181127,-0.596735239028931,0,0
1545,34.3887028643076,0,0,9.8100004196167,0,0,0,-23.8005466461182,61.2423858642578,0.001868057181127,-0.596735239028931,0,0
1546,34.398702864084,0,0,9.8100004196167,0,0,0,-23.8005466461182,61.2423858642578,0.001868057181127,-0.596735239028931,0,0
1547,34.4087028638605,0,0,9.8100004196167,0,0,0,-23.8005466461182,61.2423858642578,0.001868057181127,-0.596735239028931,0,0
1548,34.418702863637,0,0,9.8100004196167,0,0,0,-23.8005466461182,61.2423858642578,0.001868057181127,-0.596735239028931,0,0
1549,34.4287028634135,0,0,9.8100004196167,0,0,0,-23.8005466461182,61.2423858642578,0.001868057181127,-0.596735239028931,0,0
1550,34.43870286319,0,0,9.8100004196167,0,0,0,-23.8005466461182,61.2423858642578,0.001868057181127,-0.596735239028931,0,0
1551,34.4487028629665,0,0,9.8100004196167,0,0,0,-23.8005466461182,61.2423858642578,0.001868057181127,-0.596735239028931,0,0
1552,34.4587028627429,0,0,9.8100004196167,0,0,0,-23.8005466461182,61.2423858642578,0.001868057181127,-0.596735239028931,0,0
1553,34.4687028625194,0,0,9.8100004196167,0,0,0,-23.8005466461182,61.2423858642578,0.001868057181127,-0.596735239028931,0,0
1554,34.4787028622959,0,0,9.8100004196167,0,0,0,-23.8005466461182,61.2423858642578,0.001868057181127,-0.596735239028931,0,0
1555,34.4887028620724,0,0,9.8100004196167,0,0,0,-23.8005466461182,61.2423858642578,0.001868057181127,-0.596735239028931,0,0
1556,34.4987028618489,0,0,9.8100004196167,0,0,0,-23.8005466461182,61.2423858642578,0.001868057181127,-0.596735239028931,0,0
1557,34.5087028616253,0,0,9.8100004196167,0,0,0,-23.8005466461182,61.2423858642578,0.001868057181127,-0.596735239028931,0,0
1558,34.5187028614018,0,0,9.8100004196167,0,0,0,-23.8005466461182,61.2423858642578,0.001868057181127,-0.596735239028931,0,0
1559,34.5287028611783,0,0,9.8100004196167,0,0,0,-23.8005466461182,61.2423858642578,0.001868057181127,-0.596735239028931,0,0
1560,34.5387028609548,0,0,9.8100004196167,0,0,0,-23.8005466461182,61.2423858642578,0.001868057181127,-0.596735239028931,0,0
1561,34.5487028607313,0,0,9.8100004196167,0,0,0,-23.8005466461182,61.2423858642578,0.001868057181127,-0.596735239028931,0,0
1562,34.5587028605078,0,0,9.8100004196167,0,0,0,-23.8005466461182,61.2423858642578,0.001868057181127,-0.596735239028931,0,0
1563,34.5687028602842,0,0,9.8100004196167,0,0,0,-23.8005466461182,61.2423858642578,0.001868057181127,-0.596735239028931,0,0
1564,34.5787028600607,0,0,9.8100004196167,0,0,0,-23.8005466461182,61.2423858642578,0.001868057181127,-0.596735239028931,0,0
1565,34.5887028598372,0,0,9.18782424926758,8.29694556614413E-07,-3.47604867556583E-07,9.90720838700554E-11,-23.8005466461182,61.2423858642578,0.001805839478038,-0.596735239028931,0,0
1566,34.5987028596137,0,0,9.90536689758301,8.51490426612145E-07,-3.52850406670768E-07,-8.77187211756336E-13,-23.8005466461182,61.2423858642578,0.001753158518113,-0.596735239028931,0,0
1567,34.6087028593902,0,0,9.89392375946045,1.79934886546107E-07,3.77395981132622E-09,7.4402095595616E-11,-23.8005466461182,61.2423858642578,0.001708869938739,-0.596735239028931,0,0
1568,34.6187028591667,0,0,9.88286304473877,8.53720337090635E-07,3.54077201336622E-07,3.64518276674275E-11,-23.8005466461182,61.2423858642578,0.001671867328696,-0.596735239028931,0,0
1569,34.6287028589431,0,0,9.87294101715088,-3.79171751774265E-08,1.04604014339316E-08,-2.07856717948651E-11,-23.8005466461182,61.2423858642578,0.001641159062274,-0.596735239028931,0,0
1570,34.6387028587196,0,0,9.86531448364258,8.4029557001486E-07,-3.38189948934087E-07,1.03311803556494E-12,-23.8005466461182,61.2423858642578,0.001615982037038,-0.596735239028931,0,0
1571,34.6487028584961,0,0,9.85768508911133,-4.93101381948691E-08,1.65640123839239E-08,-3.35731442646647E-13,-23.8005466461182,61.2423858642578,0.001595573383383,-0.596735239028931,0,0
1572,34.6587028582726,0,0,9.85119819641113,-7.60861311732697E-08,2.60745007807373E-08,4.53725945703809E-12,-23.8005466461182,61.2423858642578,0.001579284667969,-0.596735239028931,0,0
1573,34.6687028580491,0,0,9.84585952758789,-1.00812762582336E-07,3.27251541420992E-08,5.81092465812283E-12,-23.8005466461182,61.2423858642578,0.001566581660882,-0.596735239028931,0,0
1574,34.6787028578256,0,0,9.84051704406738,-1.25345763990481E-07,4.17318268830513E-08,6.07664266127905E-12,-23.8005466461182,61.2423858642578,0.001556930481456,-0.596735239028931,0,0
1575,34.688702857602,0,0,9.83594036102295,7.65390169021885E-08,4.83376005888658E-08,7.33581251299853E-12,-23.8005466461182,61.2423858642578,0.001549873268232,-0.596735239028931,0,0
1576,34.6987028573785,0,0,9.83212661743164,-1.76405080765107E-07,5.73932510405939E-08,-9.60207607869634E-12,-23.8005466461182,61.2423858642578,0.001545028644614,-0.596735239028931,0,0
1577,34.708702857155,0,0,9.82869148254395,-2.13182872244033E-07,6.12372232922098E-08,4.19541901219844E-11,-23.8005466461182,61.2423858642578,0.001542053185403,-0.596735239028931,0,0
1578,34.7187028569315,0,0,9.82602214813232,-2.26862766794511E-07,7.06973679598377E-08,5.52710099910314E-11,-23.8005466461182,61.2423858642578,0.001540679950267,-0.596735239028931,0,0
1579,34.728702856708,0,0,9.82373332977295,-2.79911738232386E-08,7.40068983873243E-08,3.00469024661076E-12,-23.8005466461182,61.2423858642578,0.001540679950267,-0.596735239028931,0,0
1580,34.7387028564845,0,0,9.8203010559082,6.26166524853034E-07,-2.69862255208864E-07,-4.22714988013162E-11,-23.8005466461182,61.2423858642578,0.001541709876619,-0.596735239028931,0,0
1581,34.7487028562609,0,0,9.81953620910645,-2.9025326853116E-07,8.68279528276617E-08,1.11553405401921E-11,-23.8005466461182,61.2423858642578,0.001543693477288,-0.596735239028931,0,0
1582,34.7587028560374,0,0,9.81724739074707,5.75246872358548E-07,-2.56556432987054E-07,-3.43215941778219E-11,-23.8005466461182,61.2423858642578,0.001546401996166,-0.596735239028931,0,0
1583,34.7687028558139,0,0,9.8161039352417,-1.1710329061998E-07,9.72650937569597E-08,2.41979561388383E-11,-23.8005466461182,61.2423858642578,0.00154972076416,-0.596735239028931,0,0
1584,34.7787028555904,0,0,9.81457901000977,-1.42190657470564E-07,1.05357955249019E-07,-3.05763574182105E-12,-23.8005466461182,61.2423858642578,0.0015534972772,-0.596735239028931,0,0
1585,34.7887028553669,0,0,9.81343269348145,-3.89839414083326E-07,1.14404670625845E-07,-1.30580130042191E-11,-23.8005466461182,61.2423858642578,0.001557617099024,-0.596735239028931,0,0
1586,34.7987028551433,0,0,9.81267166137695,-4.2291063095945E-07,1.16355252544054E-07,3.99219823865593E-11,-23.8005466461182,61.2423858642578,0.001562004094012,-0.596735239028931,0,0
1587,34.8087028549198,0,0,9.8119068145752,-4.27999907515186E-07,1.23914503546985E-07,-1.43038358935144E-11,-23.8005466461182,61.2423858642578,0.001566581660882,-0.596735239028931,0,0
1588,34.8187028546963,0,0,9.81114387512207,4.22863109861282E-07,-2.25600288672467E-07,1.50616741301235E-11,-23.8005466461182,61.2423858642578,0.001571273780428,-0.596735239028931,0,0
1589,34.8287028544728,0,0,9.81038284301758,-4.8545729214311E-07,1.23061937529201E-07,4.7032849836981E-11,-23.8005466461182,61.2423858642578,0.001576003967784,-0.596735239028931,0,0
1590,34.8387028542493,0,0,9.81038284301758,-4.95839742598037E-07,1.25000653383722E-07,2.68829680738492E-11,-23.8005466461182,61.2423858642578,0.001580772339366,-0.596735239028931,0,0
1591,34.8487028540258,0,0,9.80961799621582,-5.13717907324462E-07,1.26926906318658E-07,3.11962400356691E-11,-23.8005466461182,61.2423858642578,0.001585502643138,-0.596735239028931,0,0
1592,34.8587028538022,0,0,9.80961799621582,-5.3025723900646E-07,1.23662616147158E-07,2.61217159014393E-11,-23.8005466461182,61.2423858642578,0.001590194646269,-0.596735239028931,0,0
1593,34.8687028535787,0,0,9.80885696411133,1.24530299672188E-06,-5.80692983476183E-07,-3.06884240242056E-11,-23.8005466461182,61.2423858642578,0.001594772329554,-0.596735239028931,0,0
1594,34.8787028533552,0,0,9.80885696411133,-5.36374443527166E-07,1.19390264785579E-07,1.33077993069719E-11,-23.8005466461182,61.2423858642578,0.001599235460162,-0.596735239028931,0,0
1595,34.8887028531317,0,0,9.80885410308838,-5.51036578144704E-07,1.27493834156667E-07,-1.24627808073541E-11,-23.8005466461182,61.2423858642578,0.001603584270924,-0.596735239028931,0,0
1596,34.8987028529082,0,0,9.80885791778564,3.15021992491893E-07,-2.3100338353288E-07,1.67601488243463E-11,-23.8005466461182,61.2423858642578,0.00160781852901,-0.596735239028931,0,0
1597,34.9087028526847,0,0,9.80809211730957,-5.583158895206E-07,1.19936544251686E-07,4.03214441002664E-11,-23.8005466461182,61.2423858642578,0.001611862098798,-0.596735239028931,0,0
1598,34.9187028524611,0,0,9.8088550567627,9.52953087107744E-07,1.29208260091218E-07,-1.55633506082609E-10,-23.8005466461182,61.2423858642578,0.001615791232325,-0.596735239028931,0,0
1599,34.9287028522376,0,0,9.80809497833252,3.01285581372213E-07,-2.22032127794591E-07,6.42704778286429E-11,-23.8005466461182,61.2423858642578,0.001619529677555,-0.596735239028931,0,0
1600,34.9387028520141,0,0,9.8084716796875,2.93853958055479E-07,-2.23460816073384E-07,-1.5557360955043E-11,-23.8005466461182,61.2423858642578,0.001623115502298,-0.596735239028931,0,0
1601,34.9487028517906,0,0,9.8084774017334,2.98753690231024E-07,4.74484949108955E-07,6.99104593659961E-11,-23.8005466461182,61.2423858642578,0.001626548706554,-0.596735239028931,0,0
1602,34.9587028515671,0,0,9.8084716796875,-5.97207417740719E-07,1.30913335283367E-07,2.51557663588642E-11,-23.8005466461182,61.2423858642578,0.001629829406738,-0.596735239028931,0,0
1603,34.9687028513436,0,0,9.80809497833252,-6.15956651017768E-07,1.34217714276019E-07,-4.21306878273242E-11,-23.8005466461182,61.2423858642578,0.00163291930221,-0.596735239028931,0,0
1604,34.97870285112,0,0,9.80847454071045,1.14151714569744E-06,-5.70124768728419E-07,-2.07357908621475E-10,-23.8005466461182,61.2423858642578,0.001635856577195,-0.596735239028931,0,0
1605,34.9887028508965,0,0,9.80847358703613,-6.12502901731205E-07,1.27571155417172E-07,2.72669997691821E-10,-23.8005466461182,61.2423858642578,0.001638641348109,-0.596735239028931,0,0
1606,34.998702850673,0,0,9.78215408325195,0,0,0,-23.8005466461182,61.2423858642578,0.001638641348109,-0.596735239028931,0,0
1607,35.0087028504495,0,0,9.8100004196167,-8.76121021065046E-07,3.46277204243961E-07,9.68289615155271E-11,-23.8005466461182,61.2423858642578,0.001638641348109,-0.596735239028931,0,0
1608,35.018702850226,0,0,9.82487869262695,1.57143382750746E-08,-1.64985785033878E-08,-1.39910333318838E-10,-23.8005466461182,61.2423858642578,0.001640129019506,-0.596735239028931,0,0
1609,35.0287028500024,0,0,9.80542182922363,3.65825947312715E-08,-3.11689767329426E-08,2.70992672746218E-11,-23.8005466461182,61.2423858642578,0.001641159062274,-0.596735239028931,0,0
1610,35.0387028497789,0,0,9.8111457824707,-8.43300540509517E-07,3.14174343429841E-07,1.06889330719895E-10,-23.8005466461182,61.2423858642578,0.001642303424887,-0.596735239028931,0,0
1611,35.0487028495554,0,0,9.81114387512207,-8.39941151298262E-07,3.06652310655409E-07,-3.94657362345896E-11,-23.8005466461182,61.2423858642578,0.001643562223762,-0.596735239028931,0,0
1612,35.0587028493319,0,0,9.81076431274414,6.36438812762208E-08,-5.89983990550991E-08,-1.11178899420139E-10,-23.8005466461182,61.2423858642578,0.001644897391088,-0.596735239028931,0,0
1613,35.0687028491084,0,0,9.81038093566895,9.89639488579996E-07,-4.28489329351578E-07,-6.32028457348E-11,-23.8005466461182,61.2423858642578,0.00164627074264,-0.596735239028931,0,0
1614,35.0787028488849,0,0,9.81038093566895,-7.33237072836346E-07,2.67272838527788E-07,2.45358983130828E-10,-23.8005466461182,61.2423858642578,0.001647682162002,-0.596735239028931,0,0
1615,35.0887028486613,0,0,9.81000137329102,1.36718597332219E-07,-8.60112479017516E-08,-1.62752700205715E-10,-23.8005466461182,61.2423858642578,0.001649093581364,-0.596735239028931,0,0
1616,35.0987028484378,0,0,9.8100004196167,1.68978715464618E-06,-9.52439975776542E-08,-8.49698089666617E-11,-23.8005466461182,61.2423858642578,0.001650505000725,-0.596735239028931,0,0
1617,35.1087028482143,0,0,9.80999946594238,1.81268802634804E-07,-1.0307684306099E-07,1.8197418572008E-10,-23.8005466461182,61.2423858642578,0.001651916420087,-0.596735239028931,0,0
1618,35.1187028479908,0,0,9.80961990356445,-7.01608769304585E-07,2.41320464056116E-07,4.62431898329285E-11,-23.8005466461182,61.2423858642578,0.001653289771639,-0.596735239028931,0,0
1619,35.1287028477673,0,0,9.8100004196167,1.82146109750647E-07,-1.16729630406098E-07,-1.54054824452743E-10,-23.8005466461182,61.2423858642578,0.001654663006775,-0.596735239028931,0,0
1620,35.1387028475438,0,0,9.80961990356445,2.06053286433416E-07,-1.3187798231229E-07,2.35166330853076E-11,-23.8005466461182,61.2423858642578,0.001655998174101,-0.596735239028931,0,0
1621,35.1487028473202,0,0,9.80923652648926,2.14856669344954E-07,-1.38492126211531E-07,8.13799375110058E-12,-23.8005466461182,61.2423858642578,0.001657257089391,-0.596735239028931,0,0
1622,35.1587028470967,0,0,9.8100004196167,2.20947327989052E-07,-1.47925504734303E-07,8.8845684281802E-13,-23.8005466461182,61.2423858642578,0.001658515888266,-0.596735239028931,0,0
1623,35.1687028468732,0,0,9.80923843383789,-6.57337807297154E-07,1.96943076957723E-07,9.75147393389442E-11,-23.8005466461182,61.2423858642578,0.001659698435105,-0.596735239028931,0,0
1624,35.1787028466497,0,0,9.80961799621582,-6.67665005948948E-07,1.95574656913777E-07,-3.96439270300419E-11,-23.8005466461182,61.2423858642578,0.001660842914134,-0.596735239028931,0,0
1625,35.1887028464262,0,0,9.80961990356445,1.96927899764887E-07,-1.55857620143252E-07,-1.07918216030178E-10,-23.8005466461182,61.2423858642578,0.001661949092522,-0.596735239028931,0,0
1626,35.1987028462027,0,0,9.80961799621582,2.0881397233552E-07,-1.63912829975743E-07,3.5826230870839E-11,-23.8005466461182,61.2423858642578,0.0016630172031,-0.596735239028931,0,0
1627,35.2087028459791,0,0,9.79931926727295,-6.74316197546432E-07,1.80496741108982E-07,1.07946311611595E-10,-23.8005466461182,61.2423858642578,0.0016630172031,-0.596735239028931,0,0
1628,35.2187028457556,0,0,9.82945442199707,1.93536550341378E-07,-1.69979230690842E-07,-1.35200073358988E-10,-23.8005466461182,61.2423858642578,0.001664962735958,-0.596735239028931,0,0
1629,35.2287028455321,0,0,9.79054641723633,1.73880584952713E-06,-1.72129091424722E-07,-7.55397550067372E-11,-23.8005466461182,61.2423858642578,0.001664962735958,-0.596735239028931,0,0
1630,35.2387028453086,0,0,9.82792854309082,-6.8566708932849E-07,1.83361706262986E-07,2.84590462307222E-10,-23.8005466461182,61.2423858642578,0.00166675564833,-0.596735239028931,0,0
1631,35.2487028450851,0,0,9.79207229614258,1.87871037837795E-07,-1.72789214047953E-07,-1.90449628290068E-10,-23.8005466461182,61.2423858642578,0.00166675564833,-0.596735239028931,0,0
1632,35.2587028448615,0,0,9.82564163208008,1.7552797260123E-07,-1.69488970414022E-07,1.51078316523723E-11,-23.8005466461182,61.2423858642578,0.001668319688179,-0.596735239028931,0,0
1633,35.268702844638,0,0,9.79435920715332,8.32313503451587E-07,1.79869687144674E-07,-1.38175755559633E-12,-23.8005466461182,61.2423858642578,0.001668319688179,-0.596735239028931,0,0
1634,35.2787028444145,0,0,9.82411575317383,-6.9321566797953E-07,1.7445218247758E-07,1.36148953222559E-10,-23.8005466461182,61.2423858642578,0.00166973110754,-0.596735239028931,0,0
1635,35.288702844191,0,0,9.79588508605957,1.54252575157443E-07,-1.69887968581861E-07,-1.58623059132168E-10,-23.8005466461182,61.2423858642578,0.00166973110754,-0.596735239028931,0,0
1636,35.2987028439675,0,0,9.82258796691895,1.52672555486788E-07,-1.72733606973452E-07,2.12976858371405E-11,-23.8005466461182,61.2423858642578,0.001670989906415,-0.596735239028931,0,0
1637,35.308702843744,0,0,9.79741287231445,1.49673624605384E-07,-1.76494282300155E-07,6.87680728334028E-12,-23.8005466461182,61.2423858642578,0.001670989906415,-0.596735239028931,0,0
1638,35.3187028435204,0,0,9.8210620880127,-7.42189229185897E-07,1.75470304952796E-07,9.97567237148722E-11,-23.8005466461182,61.2423858642578,0.001672096201219,-0.596735239028931,0,0
1639,35.3287028432969,0,0,9.7989387512207,-7.63031493988819E-07,1.7930702256308E-07,-3.89310250703545E-11,-23.8005466461182,61.2423858642578,0.001672096201219,-0.596735239028931,0,0
1640,35.3387028430734,0,0,9.8100004196167,1.28436369095652E-07,-1.68418821999694E-07,-1.09976458495531E-10,-23.8005466461182,61.2423858642578,0.001672096201219,-0.596735239028931,0,0
1641,35.3487028428499,0,0,9.82449722290039,1.37868767069449E-07,-1.62810124493262E-07,3.86034537669389E-11,-23.8005466461182,61.2423858642578,0.001673545804806,-0.596735239028931,0,0
1642,35.3587028426264,0,0,9.79550361633301,1.17265699373093E-07,-1.58052074539228E-07,1.29936339465786E-11,-23.8005466461182,61.2423858642578,0.001673545804806,-0.596735239028931,0,0
1643,35.3687028424029,0,0,9.8100004196167,-7.90520687132812E-07,1.97717284322607E-07,1.01174714439711E-10,-23.8005466461182,61.2423858642578,0.001673545804806,-0.596735239028931,0,0
1644,35.3787028421793,0,0,9.82182502746582,7.68322308886127E-07,2.05940935416038E-07,-1.46214401697264E-10,-23.8005466461182,61.2423858642578,0.001674728351645,-0.596735239028931,0,0
1645,35.3887028419558,0,0,9.79817581176758,1.03340859425316E-07,-1.38674920435733E-07,7.03871128049371E-11,-23.8005466461182,61.2423858642578,0.001674728351645,-0.596735239028931,0,0
1646,35.3987028417323,0,0,9.8100004196167,-8.07494643595419E-07,2.18010569597027E-07,8.47419912020087E-11,-23.8005466461182,61.2423858642578,0.001674728351645,-0.596735239028931,0,0
1647,35.4087028415088,0,0,9.8100004196167,7.14268992396683E-07,2.17840451455231E-07,-1.49895290624258E-10,-23.8005466461182,61.2423858642578,0.001674728351645,-0.596735239028931,0,0
1648,35.4187028412853,0,0,9.8100004196167,0,0,0,-23.8005466461182,61.2423858642578,0.001674728351645,-0.596735239028931,0,0
1649,35.4287028410617,0,0,9.82029914855957,6.99989843866433E-09,-1.03771000681263E-08,-1.59845997115687E-12,-23.8005466461182,61.2423858642578,0.001675758277997,-0.596735239028931,0,0
1650,35.4387028408382,0,0,9.79970169067383,-1.55202684037903E-09,-1.08292592670978E-08,8.22774899426892E-13,-23.8005466461182,61.2423858642578,0.001675758277997,-0.596735239028931,0,0
1651,35.4487028406147,0,0,9.8100004196167,5.5484647987214E-09,-1.83809731879592E-08,-1.62108889679991E-12,-23.8005466461182,61.2423858642578,0.001675758277997,-0.596735239028931,0,0
1652,35.4587028403912,0,0,9.8100004196167,8.86689406343066E-07,-3.72205590792873E-07,-9.7768279583299E-11,-23.8005466461182,61.2423858642578,0.001675758277997,-0.596735239028931,0,0
1653,35.4687028401677,0,0,9.8100004196167,1.10647393469776E-08,-2.92477668750735E-08,1.36952588158934E-10,-23.8005466461182,61.2423858642578,0.001675758277997,-0.596735239028931,0,0
1654,35.4787028399442,0,0,9.8100004196167,-8.85248368831526E-07,3.21806680858572E-07,6.93796756157106E-11,-23.8005466461182,61.2423858642578,0.001675758277997,-0.596735239028931,0,0
1655,35.4887028397206,0,0,9.8100004196167,-6.49129550112093E-09,-3.43460868634793E-08,-1.48015960599324E-10,-23.8005466461182,61.2423858642578,0.001675758277997,-0.596735239028931,0,0
1656,35.4987028394971,0,0,9.8100004196167,-8.9632004574014E-07,3.15707467279935E-07,1.25730009736813E-10,-23.8005466461182,61.2423858642578,0.001675758277997,-0.596735239028931,0,0
1657,35.5087028392736,0,0,9.8100004196167,-1.87611863822212E-08,-4.04415025911931E-08,-1.30383953633739E-10,-23.8005466461182,61.2423858642578,0.001675758277997,-0.596735239028931,0,0
1658,35.5187028390501,0,0,9.8203010559082,8.87115447767428E-07,-3.94344567666849E-07,-6.87328180482005E-11,-23.8005466461182,61.2423858642578,0.001676788320765,-0.596735239028931,0,0
1659,35.5287028388266,0,0,9.7996997833252,2.31003713935252E-08,-4.43481980028082E-08,1.47075310263922E-10,-23.8005466461182,61.2423858642578,0.001676788320765,-0.596735239028931,0,0
1660,35.5387028386031,0,0,9.8100004196167,2.00709067144089E-08,-4.14931982106737E-08,-2.62091737202041E-11,-23.8005466461182,61.2423858642578,0.001676788320765,-0.596735239028931,0,0
1661,35.5487028383795,0,0,9.8100004196167,1.41757370286655E-08,-4.3363758805981E-08,-8.20596542105978E-12,-23.8005466461182,61.2423858642578,0.001676788320765,-0.596735239028931,0,0
1662,35.558702838156,0,0,9.8100004196167,-8.69079315179988E-07,3.1234858965945E-07,9.64007068615658E-11,-23.8005466461182,61.2423858642578,0.001676788320765,-0.596735239028931,0,0
1663,35.5687028379325,0,0,9.8100004196167,8.08778111149877E-09,-4.28575894773076E-08,-1.38757560996794E-10,-23.8005466461182,61.2423858642578,0.001676788320765,-0.596735239028931,0,0
1664,35.578702837709,0,0,9.8100004196167,1.57478586970683E-06,-4.50568755638869E-08,-7.69811298040324E-11,-23.8005466461182,61.2423858642578,0.001676788320765,-0.596735239028931,0,0
1665,35.5887028374855,0,0,9.8100004196167,-8.3376141901681E-07,3.05688018897854E-07,2.84055057253596E-10,-23.8005466461182,61.2423858642578,0.001676788320765,-0.596735239028931,0,0
1666,35.598702837262,0,0,9.8100004196167,-8.50818310027535E-07,3.04795435113192E-07,-9.06616726137344E-11,-23.8005466461182,61.2423858642578,0.001676788320765,-0.596735239028931,0,0
1667,35.6087028370384,0,0,9.82068157196045,9.1528727352852E-07,-4.04277443522005E-07,-2.23112778252599E-10,-23.8005466461182,61.2423858642578,0.001677856431343,-0.596735239028931,0,0
1668,35.6187028368149,0,0,9.79931926727295,4.44299210755617E-08,-6.08817529723638E-08,1.72063266412614E-10,-23.8005466461182,61.2423858642578,0.001677856431343,-0.596735239028931,0,0
1669,35.6287028365914,0,0,9.8100004196167,4.76674024696422E-08,-6.98152220479642E-08,-2.0252841070878E-11,-23.8005466461182,61.2423858642578,0.001677856431343,-0.596735239028931,0,0
1670,35.6387028363679,0,0,9.8100004196167,4.39740510671527E-08,-7.2162585240676E-08,-6.66930920212305E-12,-23.8005466461182,61.2423858642578,0.001677856431343,-0.596735239028931,0,0
1671,35.6487028361444,0,0,9.8100004196167,-8.36651395275112E-07,2.70827854365052E-07,9.52701806333778E-11,-23.8005466461182,61.2423858642578,0.001677856431343,-0.596735239028931,0,0
1672,35.6587028359208,0,0,9.8100004196167,1.57441445480799E-06,-7.70619337231437E-08,-2.4162064016231E-10,-23.8005466461182,61.2423858642578,0.001677856431343,-0.596735239028931,0,0
1673,35.6687028356973,0,0,9.8100004196167,-8.19934371065756E-07,2.67976531631575E-07,3.01537322888734E-10,-23.8005466461182,61.2423858642578,0.001677856431343,-0.596735239028931,0,0
1674,35.6787028354738,0,0,9.8100004196167,9.21553009902709E-07,-4.37258904639748E-07,-2.786889885531E-10,-23.8005466461182,61.2423858642578,0.001677856431343,-0.596735239028931,0,0
1675,35.6887028352503,0,0,9.8100004196167,-8.22282459012058E-07,2.53346570389112E-07,2.48395970459114E-10,-23.8005466461182,61.2423858642578,0.001677856431343,-0.596735239028931,0,0
1676,35.6987028350268,0,0,9.8100004196167,9.23836239508091E-07,-4.48570233402279E-07,-2.57530136105188E-10,-23.8005466461182,61.2423858642578,0.001677856431343,-0.596735239028931,0,0
1677,35.7087028348033,0,0,9.8100004196167,-8.23932282401074E-07,2.4204626924984E-07,2.55025917050844E-10,-23.8005466461182,61.2423858642578,0.001677856431343,-0.596735239028931,0,0
1678,35.7187028345797,0,0,9.8100004196167,3.77814295404733E-08,-1.0839370645499E-07,-1.58521584747717E-10,-23.8005466461182,61.2423858642578,0.001677856431343,-0.596735239028931,0,0
1679,35.7287028343562,0,0,9.8100004196167,3.29914513486074E-08,-1.11231031496573E-07,2.1448065545826E-11,-23.8005466461182,61.2423858642578,0.001677856431343,-0.596735239028931,0,0
1680,35.7387028341327,0,0,9.8100004196167,-8.49285754611628E-07,2.32705573921521E-07,1.03912628501845E-10,-23.8005466461182,61.2423858642578,0.001677856431343,-0.596735239028931,0,0
1681,35.7487028339092,0,0,9.8100004196167,9.96052129664804E-09,-1.18221748834912E-07,-1.35367411724374E-10,-23.8005466461182,61.2423858642578,0.001677856431343,-0.596735239028931,0,0
1682,35.7587028336857,0,0,9.8203010559082,1.55079726482654E-06,-1.22716372175091E-07,-7.60199611593571E-11,-23.8005466461182,61.2423858642578,0.001678886357695,-0.596735239028931,0,0
1683,35.7687028334622,0,0,9.7996997833252,2.52926195543068E-08,-1.27684160133867E-07,1.84335630093457E-10,-23.8005466461182,61.2423858642578,0.001678886357695,-0.596735239028931,0,0
1684,35.7787028332386,0,0,9.8100004196167,-8.59933550145797E-07,2.13892874967314E-07,4.53941884082099E-11,-23.8005466461182,61.2423858642578,0.001678886357695,-0.596735239028931,0,0
1685,35.7887028330151,0,0,9.8100004196167,3.9153902342548E-09,-1.34692783149148E-07,-1.52017454180253E-10,-23.8005466461182,61.2423858642578,0.001678886357695,-0.596735239028931,0,0
1686,35.7987028327916,0,0,9.8100004196167,6.43407190636935E-07,2.18921400119143E-07,2.08447842320325E-11,-23.8005466461182,61.2423858642578,0.001678886357695,-0.596735239028931,0,0
1687,35.8087028325681,0,0,9.8100004196167,-1.21220971038838E-08,-1.332297188128E-07,4.59578070044486E-11,-23.8005466461182,61.2423858642578,0.001678886357695,-0.596735239028931,0,0
1688,35.8187028323446,0,0,9.8100004196167,-8.93981166427693E-07,2.10672553180302E-07,7.41597686038098E-11,-23.8005466461182,61.2423858642578,0.001678886357695,-0.596735239028931,0,0
1689,35.828702832121,0,0,9.8100004196167,-3.28945120031676E-08,-1.38377018288338E-07,-1.43071748892609E-10,-23.8005466461182,61.2423858642578,0.001678886357695,-0.596735239028931,0,0
1690,35.8387028318975,0,0,9.8100004196167,0,0,0,-23.8005466461182,61.2423858642578,0.001678886357695,-0.596735239028931,0,0
1691,35.848702831674,0,0,9.8100004196167,2.25139507037397E-09,2.34961561318414E-09,1.02268698067357E-13,-23.8005466461182,61.2423858642578,0.001678886357695,-0.596735239028931,0,0
1692,35.8587028314505,0,0,9.8100004196167,4.51262405221087E-09,4.69941774383642E-09,2.17145772933927E-13,-23.8005466461182,61.2423858642578,0.001678886357695,-0.596735239028931,0,0
1693,35.868702831227,0,0,9.8100004196167,6.77531586390501E-09,7.04921365723976E-09,2.45878567072672E-13,-23.8005466461182,61.2423858642578,0.001678886357695,-0.596735239028931,0,0
1694,35.8787028310035,0,0,9.8100004196167,9.03815600139524E-09,9.39901756424888E-09,2.5129776189646E-13,-23.8005466461182,61.2423858642578,0.001678886357695,-0.596735239028931,0,0
1695,35.8887028307799,0,0,9.8100004196167,1.13010472091446E-08,1.17488188067227E-08,2.52200793885923E-13,-23.8005466461182,61.2423858642578,0.001678886357695,-0.596735239028931,0,0
1696,35.8987028305564,0,0,9.8100004196167,1.35639135478982E-08,1.4098620937375E-08,2.52313496701753E-13,-23.8005466461182,61.2423858642578,0.001678886357695,-0.596735239028931,0,0
1697,35.9087028303329,0,0,9.8100004196167,1.58267763339381E-08,1.64484230680273E-08,2.5233390680765E-13,-23.8005466461182,61.2423858642578,0.001678886357695,-0.596735239028931,0,0
1698,35.9187028301094,0,0,9.8100004196167,-6.20323248767818E-07,-3.32956915372051E-07,5.33726405085866E-12,-23.8005466461182,61.2423858642578,0.001678886357695,-0.596735239028931,0,0
1699,35.9287028298859,0,0,9.8100004196167,5.48540270983722E-08,1.77371735077259E-08,-3.9117653560794E-11,-23.8005466461182,61.2423858642578,0.001678886357695,-0.596735239028931,0,0
1700,35.9387028296624,0,0,9.8100004196167,8.53747579299125E-08,2.0526520927433E-08,2.36029980282826E-11,-23.8005466461182,61.2423858642578,0.001678886357695,-0.596735239028931,0,0
1701,35.9487028294388,0,0,9.8100004196167,1.13822281377907E-07,2.32893562213121E-08,6.79644361623044E-12,-23.8005466461182,61.2423858642578,0.001678886357695,-0.596735239028931,0,0
1702,35.9587028292153,0,0,9.8100004196167,1.29397577097734E-07,3.17316164455406E-08,2.929421028669E-12,-23.8005466461182,61.2423858642578,0.001678886357695,-0.596735239028931,0,0
1703,35.9687028289918,0,0,9.8100004196167,1.4487464738977E-07,4.01743207589789E-08,1.28424864059146E-12,-23.8005466461182,61.2423858642578,0.001678886357695,-0.596735239028931,0,0
1704,35.9787028287683,0,0,9.8100004196167,-1.37666756927501E-06,4.31905462505711E-08,1.0438413328151E-10,-23.8005466461182,61.2423858642578,0.001678886357695,-0.596735239028931,0,0
1705,35.9887028285448,0,0,9.8100004196167,-1.35759239583422E-06,4.40752181418702E-08,-7.30647209401525E-11,-23.8005466461182,61.2423858642578,0.001678886357695,-0.596735239028931,0,0
1706,35.9987028283213,0,0,9.8100004196167,-4.44891242068479E-07,3.98025264303214E-07,-4.1345850354535E-11,-23.8005466461182,61.2423858642578,0.001678886357695,-0.596735239028931,0,0
1707,36.0087028280977,0,0,9.8100004196167,-4.15398091035968E-07,-3.04202075085413E-07,-3.680591248445E-11,-23.8005466461182,61.2423858642578,0.001678886357695,-0.596735239028931,0,0
1708,36.0187028278742,0,0,9.8100004196167,-3.62225534900062E-07,-3.02967094967244E-07,6.16193207569893E-12,-23.8005466461182,61.2423858642578,0.001678886357695,-0.596735239028931,0,0
1709,36.0287028276507,0,0,9.8100004196167,1.20373010759067E-06,-3.03259099609932E-07,-1.0120915910905E-10,-23.8005466461182,61.2423858642578,0.001678886357695,-0.596735239028931,0,0
1710,36.0387028274272,0,0,9.8100004196167,1.2417078778526E-06,-3.02389906892131E-07,7.28152121931558E-11,-23.8005466461182,61.2423858642578,0.001678886357695,-0.596735239028931,0,0
1711,36.0487028272037,0,0,9.8100004196167,3.86314070510707E-07,5.09073281307337E-08,1.17619608497321E-10,-23.8005466461182,61.2423858642578,0.001678886357695,-0.596735239028931,0,0
1712,36.0587028269802,0,0,9.8100004196167,3.98086143604814E-07,5.89088209324018E-08,-3.50162537854359E-11,-23.8005466461182,61.2423858642578,0.001678886357695,-0.596735239028931,0,0
1713,36.0687028267566,0,0,9.8100004196167,4.14065397080776E-07,6.6878634186196E-08,-9.49630131474866E-12,-23.8005466461182,61.2423858642578,0.001678886357695,-0.596735239028931,0,0
1714,36.0787028265331,0,0,9.8100004196167,4.30502069548311E-07,7.484789676937E-08,-1.19751084048936E-12,-23.8005466461182,61.2423858642578,0.001678886357695,-0.596735239028931,0,0
1715,36.0887028263096,0,0,9.8100004196167,4.47004680381724E-07,8.28171948796808E-08,4.63173770171021E-13,-23.8005466461182,61.2423858642578,0.001678886357695,-0.596735239028931,0,0
1716,36.0987028260861,0,0,9.8100004196167,4.63516727222668E-07,9.07864929899915E-08,7.51563308115655E-13,-23.8005466461182,61.2423858642578,0.001678886357695,-0.596735239028931,0,0
1717,36.1087028258626,0,0,9.8100004196167,-1.81990813530319E-07,-2.54358155871159E-07,7.33784647627411E-12,-23.8005466461182,61.2423858642578,0.001678886357695,-0.596735239028931,0,0
1718,36.118702825639,0,0,9.8100004196167,4.80471214814315E-07,9.96620670434822E-08,-3.81163399454376E-11,-23.8005466461182,61.2423858642578,0.001678886357695,-0.596735239028931,0,0
1719,36.1287028254155,0,0,9.8100004196167,-1.70929439491374E-07,-2.40255701555725E-07,3.1944783623894E-11,-23.8005466461182,61.2423858642578,0.001678886357695,-0.596735239028931,0,0
1720,36.138702825192,0,0,9.8100004196167,4.83530584460823E-07,1.18965459705578E-07,-3.07304771907102E-11,-23.8005466461182,61.2423858642578,0.001678886357695,-0.596735239028931,0,0
1721,36.1487028249685,0,0,9.8100004196167,-1.67861273325798E-07,-2.20951832829996E-07,3.27691693224885E-11,-23.8005466461182,61.2423858642578,0.001678886357695,-0.596735239028931,0,0
1722,36.158702824745,0,0,9.8100004196167,-1.05544324924267E-06,1.39447863034547E-07,7.38812205858253E-11,-23.8005466461182,61.2423858642578,0.001678886357695,-0.596735239028931,0,0
1723,36.1687028245215,0,0,9.8100004196167,-1.05268009065185E-06,1.51706757378633E-07,-4.6416967491858E-11,-23.8005466461182,61.2423858642578,0.001678886357695,-0.596735239028931,0,0
1724,36.1787028242979,0,0,9.8100004196167,-1.03475804280606E-06,1.58259240379266E-07,-1.25719573640382E-11,-23.8005466461182,61.2423858642578,0.001678886357695,-0.596735239028931,0,0
1725,36.1887028240744,0,0,9.8100004196167,-1.00582485629275E-06,1.59135367994168E-07,-3.21993993968039E-12,-23.8005466461182,61.2423858642578,0.001678886357695,-0.596735239028931,0,0
1726,36.1987028238509,0,0,9.8100004196167,-8.89849616214633E-08,5.1213675078543E-07,-2.25586667401689E-11,-23.8005466461182,61.2423858642578,0.001678886357695,-0.596735239028931,0,0
1727,36.2087028236274,0,0,9.8100004196167,-9.28547763123788E-07,1.66531819445481E-07,6.44968453644701E-11,-23.8005466461182,61.2423858642578,0.001678886357695,-0.596735239028931,0,0
1728,36.2187028234039,0,0,9.8100004196167,-2.3262977322247E-07,-1.90669581456859E-07,-1.15396900368658E-10,-23.8005466461182,61.2423858642578,0.001678886357695,-0.596735239028931,0,0
1729,36.2287028231804,0,0,9.8100004196167,4.17958219145476E-08,-1.90852873060976E-07,4.72085565084157E-12,-23.8005466461182,61.2423858642578,0.001678886357695,-0.596735239028931,0,0
1730,36.2387028229568,0,0,9.8100004196167,9.26518737287552E-08,-1.89553887253169E-07,1.66821695346542E-11,-23.8005466461182,61.2423858642578,0.001678886357695,-0.596735239028931,0,0
1731,36.2487028227333,0,0,9.8100004196167,1.30879797666239E-07,-1.82575931262363E-07,5.33977896621796E-12,-23.8005466461182,61.2423858642578,0.001678886357695,-0.596735239028931,0,0
1732,36.2587028225098,0,0,9.8100004196167,0,0,0,-23.8005466461182,61.2423858642578,0.001678886357695,-0.596735239028931,0,0
1733,36.2687028222863,0,0,9.8100004196167,3.77860409628283E-08,6.97778901326274E-09,-1.80129609145263E-12,-23.8005466461182,61.2423858642578,0.001678886357695,-0.596735239028931,0,0
1734,36.2787028220628,0,0,9.8100004196167,7.57374749582596E-08,1.39561242562536E-08,4.7159541896602E-15,-23.8005466461182,61.2423858642578,0.001678886357695,-0.596735239028931,0,0
1735,36.2887028218393,0,0,9.8100004196167,1.13712786742326E-07,2.09344914736675E-08,4.81089126869172E-13,-23.8005466461182,61.2423858642578,0.001678886357695,-0.596735239028931,0,0
1736,36.2987028216157,0,0,9.8100004196167,1.40188546993159E-07,3.3590694670238E-08,1.96591636199284E-12,-23.8005466461182,61.2423858642578,0.001678886357695,-0.596735239028931,0,0
1737,36.3087028213922,0,0,9.8100004196167,1.66614412933086E-07,4.62473792595119E-08,1.46063760045334E-12,-23.8005466461182,61.2423858642578,0.001678886357695,-0.596735239028931,0,0
1738,36.3187028211687,0,0,9.8100004196167,1.93033159234801E-07,5.89040460852175E-08,1.31903667675848E-12,-23.8005466461182,61.2423858642578,0.001678886357695,-0.596735239028931,0,0
1739,36.3287028209452,0,0,9.8100004196167,2.05272556286218E-07,6.59417409565322E-08,1.64190633745315E-12,-23.8005466461182,61.2423858642578,0.001678886357695,-0.596735239028931,0,0
1740,36.3387028207217,0,0,9.8100004196167,2.05411666343025E-07,6.73550601959505E-08,1.15395366873106E-12,-23.8005466461182,61.2423858642578,0.001678886357695,-0.596735239028931,0,0
1741,36.3487028204981,0,0,9.8100004196167,2.05489101290368E-07,6.87678749500265E-08,3.85417446655684E-13,-23.8005466461182,61.2423858642578,0.001678886357695,-0.596735239028931,0,0
1742,36.3587028202746,0.239971294999123,0.002501909155399,9.82068157196045,1.07869191197096E-05,-0.000148072242155,0.0003997705644,-23.8005218505859,61.2423858642578,0.001679954468273,-0.596509337425232,9.56226431299001E-05,1.92617098946357E-05
1743,36.3687028200511,27.2229328155518,-0.076641470193863,9.56054401397705,-2.38762186199892E-06,0.00705583859235,0.000175104665686,-23.7977752685547,61.2423515319824,0.001656265230849,-0.59640896320343,-0.003961509559304,1.78902846528217E-05
1744,36.3787028198276,26.0020294189453,0.110626056790352,9.65798377990723,-3.36545895152085E-06,0.011426973156631,8.56379774631932E-05,-23.7924289703369,61.2422981262207,0.001617851201445,-0.596359968185425,-0.010511660948396,1.59557839651825E-05
1745,36.3887028196041,24.4051761627197,-0.066031090915203,9.70552539825439,-2.75525053439196E-06,0.014300388284028,5.05402858834714E-05,-23.7846431732178,61.2422142028809,0.001569785992615,-0.596331000328064,-0.018694227561355,1.43697034218349E-05
1746,36.3987028193806,21.3452224731445,0.062105264514685,9.75697422027588,-8.258660386673E-07,0.015620382502675,3.31367664330173E-05,-23.7747230529785,61.2421112060547,0.001517448341474,-0.596311688423157,-0.027655433863402,1.38888299261453E-05
1747,36.408702819157,19.6277332305908,-0.035795331001282,9.77829074859619,-1.08155666111998E-06,0.016126489266753,2.08286783163203E-05,-23.7628421783447,61.2419891357422,0.0014632033417,-0.596299707889557,-0.036889851093292,1.32623754325323E-05
1748,36.4187028189335,11.6283798217773,0.000938496319577,9.86456775665283,-1.76357525560888E-06,0.014244965277612,1.5932238966343E-05,-23.7497959136963,61.2418556213379,0.001415328937583,-0.596290588378906,-0.045051924884319,1.22453802759992E-05
1749,36.42870281871,19.4101810455322,0.0019089555135,9.76742458343506,-8.76951673944859E-07,0.014965197071433,3.22990899803699E-06,-23.7348136901855,61.24169921875,0.001365013071336,-0.596288800239563,-0.0536238104105,1.17413201223826E-05
1750,36.4387028184865,15.3518400192261,-0.040343895554543,9.82398796081543,1.56577857524098E-06,0.014105980284512,3.29024851453141E-06,-23.7182960510254,61.2415237426758,0.001317749032751,-0.596286773681641,-0.061710756272078,1.26365757751046E-05
1751,36.448702818263,12.8524131774902,0.013633751310408,9.83992385864258,5.1469152140271E-07,0.012725028209388,4.91058290208457E-06,-23.7004928588867,61.2413368225098,0.00127502437681,-0.596284091472626,-0.069005399942398,1.29282125271857E-05
1752,36.4587028180395,12.7935438156128,0.013009000569582,9.83279895782471,7.98896849119046E-07,0.011543437838554,2.99233352052397E-06,-23.6814136505127,61.2411346435547,0.001236267038621,-0.596282243728638,-0.075610190629959,1.33837629618938E-05
1753,36.4687028178159,7.01398086547852,0.032852586358786,9.88251686096191,6.78609694659826E-07,0.009061148390174,4.02155637857504E-06,-23.6616325378418,61.2409324645996,0.001205749460496,-0.596280038356781,-0.080801136791706,1.37693805299932E-05
1754,36.4787028175924,11.8357009887695,-0.036979094147682,9.81674671173096,4.54148732842441E-07,0.008332652971148,-6.03044054514612E-06,-23.6406707763672,61.2407112121582,0.0011776733445,-0.596283435821533,-0.085582263767719,1.40345709951362E-05
1755,36.4887028173689,6.65543127059937,0.02910921536386,9.86487674713135,5.79382401610928E-07,0.00640381872654,-3.89950582757592E-05,-23.6190452575684,61.2404861450195,0.001156120328233,-0.596305906772614,-0.089250080287457,1.44005689435289E-05
1756,36.4987028171454,9.6965856552124,-0.019250139594078,9.825270652771,-2.04820480576018E-07,0.00552518106997,1.91876315511763E-05,-23.5964527130127,61.2402534484863,0.001137657091022,-0.596294701099396,-0.092419281601906,1.42658118420513E-05
1757,36.5087028169219,6.19595718383789,0.064313672482967,9.84706974029541,6.76262516208226E-07,0.004066435620189,7.83459763624705E-05,-23.5732383728027,61.2400131225586,0.001123924273998,-0.596250057220459,-0.094748377799988,1.45800377140404E-05
1758,36.5187028166984,7.89781045913696,-0.077982798218727,9.82683944702148,1.77704080783769E-07,0.003169464878738,-5.18992528668605E-05,-23.5492401123047,61.2397651672363,0.001113204983994,-0.596279561519623,-0.096558377146721,1.47313676279737E-05
1759,36.5287028164748,5.99646854400635,0.062243361026049,9.83411312103272,-8.91479146503116E-07,0.002148229861632,-0.000131851062179,-23.5246410369873,61.2395095825195,0.001105918898247,-0.596355378627777,-0.097787812352181,1.43488787216484E-05
1760,36.5387028162513,6.75779819488525,-0.049842141568661,9.82508945465088,6.25582515567658E-07,0.001373525476083,3.37540986947715E-05,-23.4993686676025,61.2392463684082,0.001101303030737,-0.59633606672287,-0.098580114543438,1.46741504067904E-05
1761,36.5487028160278,5.33709955215454,0.015369715169072,9.82826900482178,1.65174952826419E-07,0.000545378599782,8.77785569173284E-05,-23.4735660552978,61.2389793395996,0.00109943386633,-0.596285700798035,-0.09889430552721,1.46819675137522E-05
1762,36.5587028158043,6.15703821182251,0.023903418332338,9.81769943237305,6.56199233617372E-07,-7.7378290441743E-09,-2.3359516490018E-05,-23.4471473693848,61.2387046813965,0.001099395682104,-0.596285700798035,-0.09889430552721,1.46819675137522E-05
1763,36.5687028155808,4.6774787902832,-0.031493220478296,9.8252420425415,-1.1726581305993E-06,-0.000676802010275,-5.25962313986383E-05,-23.4202632904053,61.2384262084961,0.001101684523746,-0.596328973770142,-0.098504982888699,1.44612286021584E-05
1764,36.5787028153572,5.71729946136475,-0.02066863514483,9.81283283233643,7.17120144599903E-07,-0.001054985914379,-8.24165545054711E-06,-23.3928089141846,61.2381401062012,0.001105232164264,-0.596334040164948,-0.097903929650784,1.48801946124877E-05
1765,36.5887028151337,4.23640203475952,0.043923415243626,9.82039070129395,7.5826996237538E-08,-0.001577387447469,1.90557159385207E-06,-23.364933013916,61.237850189209,0.001110534649342,-0.596332967281342,-0.096995510160923,1.49217266880441E-05
1766,36.5987028149102,5.21740198135376,-0.06587003916502,9.80966854095459,-1.00093245691824E-06,-0.001825318788178,-1.00704410215258E-05,-23.3365383148193,61.2375526428223,0.001116676256061,-0.59633857011795,-0.095950491726399,1.4357998225023E-05
1767,36.6087028146867,3.89560031890869,0.080383382737637,9.81654644012451,3.88533862860641E-08,-0.002223398769274,-1.23389299915289E-05,-23.3077526092529,61.2372550964355,0.001124114962295,-0.596345782279968,-0.094680078327656,1.43919723996078E-05
1768,36.6187028144632,4.876549243927,-0.029409728944302,9.80741024017334,-1.63815371934106E-07,-0.002362929517403,-1.18831057989155E-05,-23.2784824371338,61.2369499206543,0.00113208766561,-0.596352398395538,-0.093320868909359,1.4309429388959E-05
1769,36.6287028142397,3.61594414710999,-0.002525712829083,9.81146907806397,-3.13451039346546E-07,-0.002662337850779,-1.18104444482015E-05,-23.2488536834717,61.236644744873,0.001140785170719,-0.596359491348267,-0.091790907084942,1.41409036586992E-05
1770,36.6387028140161,4.51562309265137,0.006842226721346,9.80709838867188,-8.90357867433522E-08,-0.002716219285503,-1.15776902021025E-05,-23.2187747955322,61.2363319396973,0.001149902353063,-0.596366167068481,-0.090233623981476,1.4100362022873E-05
1771,36.6487028137926,3.39540386199951,-0.004814750049263,9.81239414215088,-1.55547226654562E-07,-0.002937513403595,-1.22343999464647E-05,-23.1883563995361,61.2360153198242,0.001159782405011,-0.596373021602631,-0.088560231029987,1.40221427500364E-05
1772,36.6587028135691,4.29547023773193,-0.035444520413876,9.80311489105225,-1.14927070171689E-06,-0.002924150088802,-1.26907270896481E-05,-23.1575088500977,61.2356910705566,0.001169624272734,-0.596380233764648,-0.086879998445511,1.33747253130423E-05
1773,36.6687028133456,3.17440795898437,0.032893784344196,9.81063652038574,-8.94400784545724E-07,-0.003085268428549,-1.18165316962404E-05,-23.1263465881348,61.2353630065918,0.001180000253953,-0.596386969089508,-0.085124641656876,1.28724595924723E-05
1774,36.6787028131221,4.09446287155151,0.0024725694675,9.80176448822022,1.82036137630348E-06,-0.003020672360435,-9.99051644612337E-06,-23.0947780609131,61.2350387573242,0.001190147362649,-0.596392691135407,-0.083376117050648,1.39237836265238E-05
1775,36.6887028128986,3.01422524452209,-0.008768528699875,9.80953121185303,5.97290295445419E-07,-0.003134971950203,-1.25611741168541E-05,-23.0629062652588,61.2347068786621,0.001200675964355,-0.596399784088135,-0.081586606800556,1.42764129122952E-05
1776,36.698702812675,3.93386650085449,0.00080813159002,9.80147647857666,-1.26587713111803E-06,-0.003032386070117,-1.38388004415901E-05,-23.030647277832,61.2343673706055,0.001210899325088,-0.596407830715179,-0.079844906926155,1.35622667585267E-05
1777,36.7087028124515,2.87362718582153,-0.010225099511445,9.80838203430176,7.36045990379353E-07,-0.003112164558843,-1.18170255518635E-05,-22.9980983734131,61.2340316772461,0.001221351558343,-0.596414506435394,-0.078062228858471,1.3993349057273E-05
1778,36.718702812228,3.77286171913147,0.039141498506069,9.8007869720459,-1.60914822799896E-07,-0.002980631543323,-1.29656691569835E-05,-22.9651737213135,61.2336883544922,0.001231384230778,-0.596422016620636,-0.076361507177353,1.3911145288148E-05
1779,36.7287028120045,2.81345725059509,-0.050846636295319,9.80825138092041,1.54751558056887E-06,-0.003035419620574,-1.2510781743913E-05,-22.9319705963135,61.2333450317383,0.00124160759151,-0.59642893075943,-0.074619814753532,1.48072840602254E-05
1780,36.738702811781,3.63270092010498,-0.002312561729923,9.79889869689941,-2.04031636030777E-07,-0.002883388893679,-1.33699986690772E-05,-22.8984031677246,61.2329902648926,0.001251182518899,-0.596436977386475,-0.072960078716278,1.47001974255545E-05
1781,36.7487028115575,2.71206402778625,0.02810875326395,9.8112096786499,3.38061113325239E-07,-0.002919965656474,-1.05549779618741E-05,-22.8645668029785,61.2326393127441,0.001261215191334,-0.596442818641663,-0.071293510496616,1.49015495480853E-05
1782,36.7587028113339,3.55214738845825,-0.003144509159029,9.79652976989746,2.3151878281169E-07,-0.002755811903626,-1.10432893052348E-05,-22.8303775787354,61.2322845458984,0.001270332257263,-0.596449255943298,-0.069715738296509,1.50420391946682E-05
1783,36.7687028111104,2.6119396686554,-0.012929501011968,9.80957508087158,-7.24961466858076E-07,-0.002780417213216,-1.17076624519541E-05,-22.7959270477295,61.2319221496582,0.001279716496356,-0.596455991268158,-0.068117469549179,1.46347183545004E-05
1784,36.7787028108869,3.47079467773437,0.076019160449505,9.79986381530762,1.37628046559257E-06,-0.00260736932978,-9.50495814322494E-06,-22.7611331939697,61.2315673828125,0.001288490253501,-0.596461355686188,-0.066628493368626,1.54296067194082E-05
1785,36.7887028106634,2.57226014137268,-0.093340858817101,9.80784702301025,-1.92944739296763E-07,-0.002623391803354,-1.35340815177187E-05,-22.7260780334473,61.231201171875,0.001297340379097,-0.596469163894653,-0.065125852823258,1.53279397636652E-05
1786,36.7987028104399,3.41071701049805,0.035397510975599,9.80049228668213,-1.01749208170077E-06,-0.002446326659992,-1.26276208902709E-05,-22.6906871795654,61.230827331543,0.00130561820697,-0.596476435661316,-0.06371883302927,1.47532409755513E-05
1787,36.8087028102163,2.51094841957092,-0.013969320803881,9.80727577209473,1.80136851213319E-07,-0.002458516741171,-9.70574001257774E-06,-22.6550464630127,61.2304573059082,0.00131389615126,-0.596481859683991,-0.062311813235283,1.4862490388623E-05
1788,36.8187028099928,3.31067585945129,-0.00564069673419,9.80037593841553,7.72743760535377E-07,-0.002280020387843,-7.34998775442364E-06,-22.6190738677978,61.2300834655762,0.001321563730016,-0.596486151218414,-0.061014074832201,1.53097789734602E-05
1789,36.8287028097693,2.51008439064026,0.026028966531158,9.80777263641357,-3.04338925616321E-07,-0.002289562718943,-8.90698538569268E-06,-22.5828514099121,61.2297058105469,0.001329269376583,-0.596491277217865,-0.059695851057768,1.51408366946271E-05
1790,36.8387028095458,3.27024579048157,-0.006056603509933,9.80056381225586,-1.81428092105307E-07,-0.002111654961482,-7.91722231952008E-06,-22.5463027954102,61.2293243408203,0.001336364774033,-0.596495926380158,-0.05848690494895,1.5041619008116E-05
1791,36.8487028093223,2.51050233840942,-0.053966239094734,9.80787754058838,7.23628716059466E-07,-0.002120143733919,-8.04379669716582E-06,-22.5095062255859,61.2289390563965,0.001343498239294,-0.596500515937805,-0.057271134108305,1.54608187585836E-05
1792,36.8587028090988,3.18901872634888,0.073106840252876,9.80077457427979,8.44325541038415E-07,-0.001946028554812,-7.17613738743239E-06,-22.4723892211914,61.2285537719727,0.001350021339022,-0.596504330635071,-0.056157812476158,1.59486498887418E-05
1793,36.8687028088752,2.45012402534485,-0.054590445011854,9.80879688262939,-1.59939133936859E-07,-0.001954389270395,-8.00467114459025E-06,-22.4350280761719,61.2281608581543,0.001356658875011,-0.596509218215942,-0.055037662386894,1.58615985128563E-05
1794,36.8787028086517,3.18906784057617,0.033109396696091,9.80051326751709,-5.55843087113317E-07,-0.001782834297046,-6.10900315223262E-06,-22.3973503112793,61.2277717590332,0.001362647977658,-0.596512734889984,-0.054013133049011,1.5546382201137E-05
1795,36.8887028084282,2.46935486793518,-0.014384106732905,9.80810356140137,6.70577264827443E-08,-0.001795580610633,-7.79916445026174E-06,-22.3594284057617,61.2273750305176,0.001368675148115,-0.596516966819763,-0.052988603711128,1.55889829329681E-05
1796,36.8987028082047,3.12915325164795,-0.007512642070651,9.80182075500488,-5.18624325707151E-08,-0.001630979124457,-6.71299267196446E-06,-22.3211917877197,61.2269744873047,0.00137416832149,-0.596520900726318,-0.052052870392799,1.55627967615146E-05
1797,36.9087028079812,2.42861795425415,0.02519759722054,9.80821895599365,1.43175896027969E-07,-0.001652800827287,-5.83043265578453E-06,-22.28271484375,61.2265739440918,0.001379699679092,-0.596524119377136,-0.051103472709656,1.56478672579397E-05
1798,36.9187028077577,3.02885103225708,-0.008553371764719,9.80239009857178,1.28865934811984E-07,-0.001496971468441,-5.62500054002157E-06,-22.243932723999,61.2261695861816,0.001384735107422,-0.596527457237244,-0.050249699503183,1.57245976879494E-05
1799,36.9287028075341,2.44832253456116,0.025406211614609,9.80865669250488,1.00610202480311E-06,-0.001519653829746,-5.88168268222944E-06,-22.2049083709717,61.2257652282715,0.001389846787788,-0.596530735492706,-0.049382265657187,1.63039348990424E-05
1800,36.9387028073106,3.00898432731628,-0.048758968710899,9.80249404907227,-3.77038489318693E-08,-0.001374186016619,-6.42226586933248E-06,-22.165584564209,61.2253532409668,0.001394462538883,-0.596534371376038,-0.048589963465929,1.62855139933527E-05
1801,36.9487028070871,2.40763568878174,0.064987882971764,9.80875778198242,1.63168934363966E-07,-0.001398539403453,-5.33084221387981E-06,-22.1260223388672,61.2249450683594,0.001399154658429,-0.596537411212921,-0.047790832817555,1.63815529958811E-05
1802,36.9587028068636,2.9687237739563,-0.049174975603819,9.80108070373535,7.17396289928729E-07,-0.00125930737704,-6.80369203109876E-06,-22.0861625671387,61.2245292663574,0.001403198228218,-0.596541404724121,-0.047060001641512,1.67957514349837E-05
1803,36.9687028066401,2.40822172164917,-0.015007385052741,9.81301689147949,-3.96170065641854E-07,-0.001284826779738,-8.13667793408968E-06,-22.0460624694824,61.2241096496582,0.001407737727277,-0.596545994281769,-0.046329170465469,1.65725614351686E-05
1804,36.9787028064165,2.94765067100525,0.030612761154771,9.79926109313965,-8.20441471205413E-07,-0.001153022865765,-6.23654523224104E-06,-22.0056686401367,61.223690032959,0.001411437988281,-0.5965496301651,-0.045659810304642,1.61054194904864E-05
1805,36.988702806193,2.34799599647522,-0.015631871297956,9.81311988830566,-1.91738450894263E-07,-0.001178868114948,-6.48166769678937E-06,-21.9650382995605,61.2232666015625,0.001415634178557,-0.596553325653076,-0.044990453869104,1.59984629135579E-05
1806,36.9987028059695,2.9478497505188,-0.009384738281369,9.7993278503418,-2.36770731021352E-07,-0.001053981250152,-6.25793109065853E-06,-21.9241180419922,61.2228393554688,0.001418991014361,-0.596556842327118,-0.044389396905899,1.58656475832686E-05
1807,37.008702805746,2.34737110137939,0.024366201832891,9.81316947937012,-1.86199258678244E-07,-0.001079878304154,-5.99793656874681E-06,-21.8829612731934,61.222412109375,0.001422843895853,-0.59656023979187,-0.043774679303169,1.57615831994917E-05
1808,37.0187028055225,2.88723731040955,0.029988687485457,9.79981327056885,-7.93767753748398E-08,-0.000962801335845,-4.90976890432648E-06,-21.8415184020996,61.221981048584,0.001425895607099,-0.596563339233398,-0.043221436440945,1.57182657858357E-05
1809,37.028702805299,2.38801002502441,-0.055212672799826,9.81318378448486,7.51865229631221E-07,-0.000986863975413,-5.36816287421971E-06,-21.7998352050781,61.2215461730957,0.001429443364032,-0.596566379070282,-0.042654529213905,1.61513544298941E-05
1810,37.0387028050754,2.8074746131897,-0.010841735638678,9.79992771148682,-9.03315537925664E-08,-0.000881863408722,-4.71293833470554E-06,-21.7578735351562,61.2211074829102,0.001432189950719,-0.596569120883942,-0.042149096727371,1.61015886988025E-05
1811,37.0487028048519,2.44699811935425,0.025407925248146,9.81127643585205,-5.05134245543104E-08,-0.00089979742188,-4.55890676676063E-06,-21.7156677246094,61.2206687927246,0.001435241661966,-0.596571862697601,-0.04163683205843,1.6074554878287E-05
1812,37.0587028046284,2.72731518745422,-0.011674446985126,9.80461025238037,-1.15044940685038E-07,-0.000809853663668,-4.6047553041717E-06,-21.6731910705566,61.2202224731445,0.001437950064428,-0.596574485301971,-0.041172377765179,1.60105646500597E-05
1813,37.0687028044049,2.44683599472046,0.02540810406208,9.80864524841309,2.66321876551956E-07,-0.000818023690954,-2.31592071031628E-06,-21.6304683685303,61.2197799682617,0.001440696651116,-0.596575677394867,-0.040701095014811,1.61641073646024E-05
1814,37.0787028041814,2.70716404914856,-0.011882532387972,9.80580997467041,5.35494336872944E-07,-0.00074532290455,-7.36255231004179E-07,-21.587474822998,61.2193298339844,0.001443214365281,-0.59657609462738,-0.040277622640133,1.64712710102322E-05
1815,37.0887028039579,2.4671049118042,-0.0143814207986,9.80790710449219,-3.65512029532056E-08,-0.0007437322638,-2.50416491098804E-07,-21.5442371368408,61.218879699707,0.001445693895221,-0.59657609462738,-0.039847321808338,1.64503999258159E-05
1816,37.0987028037343,2.60661196708679,0.027074167504907,9.80668258666992,5.11622943122347E-07,-0.000687943131197,-9.50626485973771E-07,-21.5007400512695,61.2184257507324,0.001448020921089,-0.596576631069183,-0.03945117071271,1.67439102369826E-05
1817,37.1087028035108,2.52696704864502,-0.013756618835032,9.80789756774902,-1.24846877724849E-07,-0.000677682168316,-7.07307435732218E-07,-21.4569892883301,61.2179718017578,0.001450309762731,-0.596577048301697,-0.039061848074198,1.6672702258802E-05
1818,37.1187028032873,2.60648345947266,0.027074182406068,9.80671691894531,-1.26950553180905E-07,-0.000636134878732,-6.77494710998872E-07,-21.4129810333252,61.2175140380859,0.001452445983887,-0.596577525138855,-0.038699850440025,1.66001918842085E-05
1819,37.1287028030638,2.46684741973877,-0.01438132673502,9.80758857727051,-3.07934897136874E-07,-0.000620344420895,-1.47628588820226E-06,-21.3687229156494,61.2170524597168,0.001454505836591,-0.596578419208527,-0.03834468126297,1.64243192557478E-05
1820,37.1387028028403,2.56678438186645,-0.013340118341148,9.80753803253174,-3.41190201424979E-07,-0.00058835739037,-1.54648387251655E-06,-21.3242111206055,61.2165908813477,0.001456489553675,-0.596579194068909,-0.038010001182556,1.62294018082321E-05
1821,37.1487028026168,2.50631523132324,0.026033157482743,9.80759239196777,9.43820737120404E-07,-0.000568335934076,-2.86708518615342E-06,-21.2794494628906,61.2161254882813,0.001458396902308,-0.596580982208252,-0.03768215328455,1.6771295122453E-05
1822,37.1587028023932,2.50667786598206,-0.01396466139704,9.80760383605957,-7.53672338760225E-07,-0.000542497495189,-3.47883405993343E-06,-21.2344379425049,61.2156562805176,0.00146022788249,-0.596582889556885,-0.037367962300778,1.63407603395171E-05
1823,37.1687028021697,2.52704405784607,-0.053754091262817,9.80760383605957,7.88566126175283E-07,-0.000521834357642,-3.25467135553481E-06,-21.1891746520996,61.2151832580566,0.001461982727051,-0.596584737300873,-0.037081096321344,1.67938069353113E-05
1824,37.1787028019462,2.48574805259705,0.06582298129797,9.80764389038086,3.56501317355651E-08,-0.000499293906614,-2.33107903113705E-06,-21.1436614990234,61.2147102355957,0.001463661203161,-0.596586108207703,-0.036794226616621,1.68150672834599E-05
1825,37.1887028017227,2.52694725990295,-0.053753968328238,9.80763053894043,-9.74772973449944E-08,-0.000478546746308,-2.88161436401424E-06,-21.0978965759277,61.2142333984375,0.00146526331082,-0.596587717533112,-0.036514189094305,1.67602611327311E-05
1826,37.1987028014992,2.46565699577332,0.065614782273769,9.80843925476074,-7.91230888808059E-07,-0.000458659225842,-2.73455566457415E-06,-21.051887512207,61.213752746582,0.001466865534894,-0.596589267253876,-0.036254640668631,1.63078912009951E-05
1827,37.2087028012756,2.50685882568359,-0.053962163627148,9.80690479278564,-3.89523137300785E-07,-0.000439487223048,-3.93851496482966E-06,-21.0056266784668,61.2132682800293,0.001468315138482,-0.596591532230377,-0.035995095968247,1.60861236508936E-05
1828,37.2187028010521,2.46598792076111,0.025617053732276,9.80807971954346,-2.16426855104146E-07,-0.000420754629886,-2.69688621301611E-06,-20.9591197967529,61.2127876281738,0.001469726557843,-0.596593081951141,-0.035756036639214,1.59631435963092E-05
1829,37.2287028008286,2.5263614654541,-0.013755980879068,9.80805587768555,-5.19612058269559E-07,-0.000403377955081,-4.28944758823491E-06,-20.9123630523682,61.2122993469238,0.00147109979298,-0.596595466136932,-0.035523813217878,1.5666935723857E-05
1830,37.2387028006051,2.44591164588928,0.025408908724785,9.80773162841797,-4.28817742204046E-07,-0.000385218503652,-3.61487150257744E-06,-20.8653602600098,61.2118110656738,0.00147239677608,-0.5965975522995,-0.035305246710777,1.54225126607344E-05
1831,37.2487028003816,2.50628852844238,-0.013963957317174,9.80770397186279,1.23379845717864E-06,-0.000367940054275,-4.09799031331204E-06,-20.8181095123291,61.2113151550293,0.001473617507145,-0.596599936485291,-0.035093508660793,1.61308744281996E-05
1832,37.2587028001581,2.42625784873962,-0.014796921983361,9.80814266204834,-2.46738835585347E-07,-0.00035235832911,-2.2518993318954E-06,-20.7706146240234,61.210823059082,0.001474800053984,-0.596601247787476,-0.034888602793217,1.59902538143797E-05
1833,37.2687027999345,2.48580574989319,0.025825696066022,9.8081169128418,-4.52863844202511E-07,-0.000337263685651,-3.34387073053222E-06,-20.7228736877441,61.2103271484375,0.001475944533013,-0.596603095531464,-0.034697357565165,1.57319573190762E-05
1834,37.278702799711,2.5061891078949,-0.01396375335753,9.80772876739502,3.16403287570211E-07,-0.0003217200574,-3.85496196031454E-06,-20.6748828887939,61.2098274230957,0.001477012643591,-0.59660542011261,-0.03451294451952,1.59145638463087E-05
1835,37.2887027994875,2.4257481098175,0.025201104581356,9.80816555023193,-5.84462100050587E-07,-0.000306959351292,-3.81829613615992E-06,-20.6266479492187,61.2093238830566,0.001478042569943,-0.596607565879822,-0.034342188388109,1.55810066644335E-05
1836,37.298702799264,2.48613214492798,-0.014171935617924,9.80813884735107,-4.88338969262259E-07,-0.000294176425086,-3.16944920086826E-06,-20.5781669616699,61.2088203430176,0.001479034428485,-0.596609354019165,-0.034171435981989,1.5302295651054E-05
1837,37.3087027990405,2.44610619544983,-0.01458840444684,9.80816745758057,-5.95958567828347E-07,-0.000280380103504,-3.73617490367906E-06,-20.5294399261475,61.2083129882813,0.001479988102801,-0.596611559391022,-0.034007508307695,1.49621064338135E-05
1838,37.318702798817,2.46566390991211,0.025617795065045,9.8081636428833,2.91996570922493E-07,-0.000268131640041,-3.69254144061415E-06,-20.48046875,61.2078056335449,0.001480903592892,-0.596613645553589,-0.033864077180624,1.51306703628507E-05
1839,37.3287027985934,2.44605469703674,-0.014588159509003,9.80780124664307,9.9252666529992E-08,-0.000255486200331,-4.90135880681919E-06,-20.4312515258789,61.2072944641113,0.001481742830947,-0.596616387367249,-0.033706981688738,1.51891899804468E-05
1840,37.3387027983699,2.46644806861877,-0.054377537220717,9.80855369567871,6.3431951957682E-07,-0.000244665367063,-5.5172586144181E-06,-20.3817882537842,61.2067756652832,0.001482582069002,-0.596619665622711,-0.033577207475901,1.5554482160951E-05
1841,37.3487027981464,2.44517493247986,0.065407730638981,9.80781269073486,-6.00793498506391E-07,-0.000233702477999,-3.63840308637009E-06,-20.3320827484131,61.2062568664551,0.001483345055021,-0.596621751785278,-0.033433772623539,1.52114544107462E-05
1842,37.3587027979229,2.46640253067017,-0.054377399384976,9.80856800079346,5.08291293499497E-07,-0.000222018774366,-2.3100567432266E-06,-20.2821311950684,61.2057342529297,0.001484107924625,-0.596622943878174,-0.033310830593109,1.5503479517065E-05
1843,37.3687027976994,2.44513297080994,0.065407946705818,9.80820465087891,5.77213086216943E-07,-0.000212520782952,-2.01977741198789E-06,-20.2319355010986,61.2052116394043,0.001484832726419,-0.596624255180359,-0.033187888562679,1.58348611876136E-05
1844,37.3787027974759,2.44676828384399,-0.054585240781307,10.5177421569824,6.26168059625343E-07,-0.000238242646446,-1.8496704115023E-06,-20.1814956665039,61.2046852111816,0.001556472736411,-0.596625328063965,-0.033051282167435,1.61942134582205E-05
1845,37.3887027972523,2.44543099403381,0.025410199537873,9.68156814575195,-1.20569808359505E-07,-0.000225656418479,-1.10446535472875E-06,-20.1308116912842,61.204158782959,0.001615409855731,-0.596625924110413,-0.032921511679888,1.61254793056287E-05
1846,37.3987027970288,2.46585750579834,-0.014379368163645,9.70100975036621,-2.50156517722644E-07,-0.000193806976313,-1.49163258811313E-06,-20.0798816680908,61.2036247253418,0.001663589384407,-0.596625924110413,-0.032921511679888,1.61254793056287E-05
1847,37.4087027968053,2.38541650772095,0.024785393849015,9.7170877456665,-5.91630225699191E-07,-0.000201915026992,-4.02382255515477E-07,-20.0287132263184,61.2030944824219,0.001702613779344,-0.596626937389374,-0.032696112990379,1.56437872647075E-05
1848,37.4187027965818,2.50583386421204,-0.0139628816396,9.72999000549316,-1.43749957715045E-07,-0.000158526498126,1.73966498095979E-06,-19.977294921875,61.2025566101074,0.001733779907227,-0.596626937389374,-0.032696112990379,1.56437872647075E-05
1849,37.4287027963583,2.34581732749939,-0.015628701075912,9.74496459960938,4.08741911428479E-08,-0.000197076180484,-1.26921613627928E-05,-19.9256439208984,61.202018737793,0.001758575439453,-0.59663313627243,-0.03249803930521,1.5588419046253E-05
1850,37.4387027961347,1.12501215934753,0.051662959158421,9.76397609710693,1.10756070625939E-06,-0.000505691336002,1.98103862203425E-05,-19.8738803863525,61.2014846801758,0.00177883147262,-0.596621811389923,-0.032211169600487,1.62165688379901E-05
1851,37.4487027959112,0.985770285129547,-0.029790097847581,9.7770299911499,-1.24305245208234E-06,-0.000902923347894,-5.26017138327006E-05,-19.8220176696777,61.2009391784668,0.001795844989829,-0.596651971340179,-0.031685244292021,1.55211710080039E-05
1852,37.4587027956877,-5.05455112457275,-0.052690248936415,9.83288192749023,1.30772264128609E-06,-0.002670326968655,-2.88564897346077E-05,-19.7706604003906,61.2004051208496,0.001814880291931,-0.596668601036072,-0.030155284330249,1.62793858180521E-05
1853,37.4687027954642,1.48441600799561,0.05541267618537,9.76538467407227,-1.7442999933337E-07,-0.002323745051399,6.95305971021298E-06,-19.7191581726074,61.1998672485352,0.001829528715462,-0.596664547920227,-0.028823396191001,1.61774460138986E-05
1854,37.4787027952407,-2.45563745498657,0.014383257366717,9.80468082427979,1.22657667134263E-07,-0.002926846267656,1.56051305566507E-06,-19.6679000854492,61.199333190918,0.001843528705649,-0.596663653850555,-0.027150001376867,1.62472861120477E-05
1855,37.4887027950172,1.74471795558929,-0.021875627338886,9.76763439178467,-2.79609082554089E-08,-0.002351451432332,9.04978242033394E-06,-19.6164665222168,61.1987991333008,0.001853370573372,-0.59665858745575,-0.025783963501453,1.6228865206358E-05
1856,37.4987027947936,-2.73614072799683,0.011467903852463,9.81382369995117,-1.02380141697722E-07,-0.002971675479785,7.5600401032716E-06,-19.5653095245361,61.1982650756836,0.001863479614258,-0.596654176712036,-0.02409690618515,1.61683128681034E-05
1857,37.5087027945701,2.18461012840271,-0.057291936129332,9.76793098449707,-7.21533922387607E-07,-0.002182924188674,7.11007351128501E-06,-19.5139331817627,61.1977272033691,0.001869468600489,-0.596650123596191,-0.022846981883049,1.57532558660023E-05
1858,37.5187027943466,-2.39705300331116,0.055006466805935,9.8162317276001,5.97773563981718E-08,-0.002689166693017,2.90353364107432E-06,-19.462797164917,61.1971969604492,0.001875991816632,-0.596648454666138,-0.021303359419108,1.57868526002858E-05
1859,37.5287027941231,2.42373895645142,-0.014795077964664,9.7713794708252,-9.04900545606324E-08,-0.001835803617723,4.05375203627045E-06,-19.4114189147949,61.1966590881348,0.00187873840332,-0.596646189689636,-0.020251510664821,1.57341837621061E-05
1860,37.5387027938996,-2.13705921173096,0.017716243863106,9.81947898864746,4.84694062663493E-08,-0.002319168066606,3.50306549989909E-06,-19.3602542877197,61.1961250305176,0.001882362295873,-0.596644282341003,-0.018912792205811,1.57612739712931E-05
1861,37.5487027936761,2.6833598613739,-0.012087751179934,9.77367782592773,1.13622149910952E-06,-0.001430714502931,5.22048776474549E-06,-19.3088245391846,61.1955909729004,0.001882438664325,-0.596641182899475,-0.018106831237674,1.64113425853429E-05
1862,37.5587027934525,-1.91781318187714,0.060005325824022,9.82315731048584,9.983235713662E-07,-0.001913080923259,1.3021615359321E-06,-19.2575817108154,61.1950607299805,0.001883773715235,-0.596640288829803,-0.017007170245051,1.69830946106231E-05
1863,37.568702793229,2.92347741127014,-0.049586497247219,9.77597522735596,-7.9727749380254E-07,-0.001020062947646,1.85692340437527E-06,-19.2060508728027,61.1945266723633,0.001881790114567,-0.596639215946198,-0.016426604241133,1.65259771165438E-05
1864,37.5787027930055,-1.65682637691498,-0.057280898094177,9.82570934295654,-9.50057255977299E-07,-0.001517947763205,-7.31325883407408E-07,-19.1546840667725,61.1939888000488,0.001881332369521,-0.596639752388001,-0.015552340075374,1.59817645908333E-05
1865,37.588702792782,3.10200810432434,0.072281219065189,9.77866077423096,-1.87430330811367E-07,-0.000633747782558,2.06279992198688E-06,-19.1030082702637,61.1934509277344,0.001877822796814,-0.59663861989975,-0.015190339647234,1.58740658662282E-05
1866,37.5987027925585,-1.43743121623993,-0.014992193318904,9.82753276824951,-2.18884608216285E-07,-0.001153363147751,-2.50178857186256E-07,-19.051477432251,61.1929130554199,0.001876029884443,-0.596638679504395,-0.014520981349051,1.5748670193716E-05
1867,37.608702792335,3.2831072807312,-0.045838005840778,9.78018569946289,-1.84399937097623E-07,-0.000286496040644,1.71943122495577E-06,-18.9996166229248,61.1923713684082,0.001871337881312,-0.596637666225433,-0.014363886788488,1.56428013724508E-05
1868,37.6187027921114,-1.23838365077972,0.067086175084114,9.82937526702881,7.8646957035744E-07,-0.000830421748105,4.97219332373788E-07,-18.9478816986084,61.1918334960938,0.001868553110398,-0.596637547016144,-0.013885773718357,1.6093337762868E-05
1869,37.6287027918879,3.46301627159119,-0.043963581323624,9.78207683563232,7.60356272166973E-07,1.5188253200904E-05,2.23657616515993E-06,-18.8957996368408,61.191291809082,0.001863059937023,-0.596637547016144,-0.013885773718357,1.6093337762868E-05
1870,37.6387027916644,-1.07802712917328,0.028754526749253,9.83009338378906,-1.6884014542029E-07,-0.000551212986466,-1.94721280877275E-07,-18.8438243865967,61.1907501220703,0.001859550480731,-0.596636235713959,-0.013585245236755,1.64319662872003E-05
1871,37.6487027914409,3.62298345565796,-0.042297497391701,9.78357315063477,7.38230255592498E-07,0.000270989752607,1.67065195455507E-06,-18.7914886474609,61.1902046203613,0.001853485009633,-0.596635282039642,-0.013742339797318,1.6854706700542E-05
1872,37.6587027912174,-0.898457765579224,0.070626728236675,9.83157539367676,-8.23543814476579E-07,-0.000317023921525,9.63079060056771E-07,-18.7392425537109,61.1896629333496,0.001849555876106,-0.596634745597839,-0.013557924889028,1.63827153301099E-05
1873,37.6687027909938,3.76299262046814,-0.040839865803719,9.7846794128418,-3.50775366086964E-07,0.000483860290842,1.57685212798242E-06,-18.6866207122803,61.1891136169434,0.001843185396865,-0.596633970737457,-0.013837962411344,1.61815205501625E-05
1874,37.6787027907703,-0.777583122253418,-0.0081193940714,9.83193206787109,6.20272714968451E-07,-0.000123269841424,-4.0175086724048E-07,-18.6340770721436,61.1885681152344,0.00183898920659,-0.596633970737457,-0.013837962411344,1.61815205501625E-05
1875,37.6887027905468,3.92261838912964,0.000824005459435,9.78500175476074,-2.34948274169255E-07,0.000653962488286,2.2406486550608E-06,-18.5811424255371,61.1880149841309,0.001832389738411,-0.596632778644562,-0.014138490892947,1.64020475494908E-05
1876,37.6987027903233,-0.677536725997925,-0.0070780380629,9.83305549621582,-1.89806883099664E-07,3.27701272908598E-05,8.71812972036423E-07,-18.5282726287842,61.1874656677246,0.001828079228289,-0.596632778644562,-0.014138490892947,1.64020475494908E-05
1877,37.7087027900998,4.00269508361816,0.001656882697716,9.78571128845215,-3.10156394789374E-07,0.000788903096691,2.06317054107785E-06,-18.4750061035156,61.1869087219238,0.001821441575885,-0.596631109714508,-0.014609773643315,1.61151547217742E-05
1878,37.7187027898763,-0.517880916595459,0.03458584100008,9.83340358734131,-9.09791708636476E-07,0.000154218709213,9.20763739031827E-07,-18.4217891693115,61.1863555908203,0.001817130949348,-0.596631109714508,-0.014609773643315,1.61151547217742E-05
1879,37.7287027896527,4.10279226303101,0.002697936026379,9.78602313995361,-3.33200745217255E-07,0.000890493800398,2.18925333683728E-06,-18.3681640625,61.1857986450195,0.001810531597584,-0.596629440784454,-0.01521083060652,1.54025274241576E-05
1880,37.7387027894292,-0.417343020439148,-0.004370840732008,9.83414649963379,-4.29948840974248E-07,0.000247377727646,1.10366805472495E-07,-18.3145790100098,61.1852416992187,0.001806335407309,-0.59662926197052,-0.015347434207797,1.5156137123995E-05
1881,37.7487027892057,4.16290807723999,0.003322638571262,9.78595733642578,3.4372047252873E-07,0.000966392166447,1.31837691697001E-06,-18.2605800628662,61.1846809387207,0.001799850375392,-0.596628546714783,-0.015907509252429,1.53528853843454E-05
1882,37.7587027889822,-0.316805422306061,-0.043327316641808,9.83374118804932,2.77970627848845E-07,0.00031567554106,-7.14203906682087E-07,-18.2066116333008,61.1841201782227,0.001795730553567,-0.596629023551941,-0.016085093840957,1.55122452270007E-05
1883,37.7687027887587,4.24345016479492,-0.035842172801495,9.78702163696289,-8.00730845185171E-07,0.001018260605633,1.67176196441687E-07,-18.1522197723389,61.1835479736328,0.001789436326362,-0.596628963947296,-0.016665659844875,1.50534351632814E-05
1884,37.7787027885352,-0.217924445867538,0.077707409858704,9.83371734619141,1.72614818438888E-07,0.000361607031664,-5.9455379641804E-07,-18.0978507995605,61.1829833984375,0.001785507192835,-0.596629142761231,-0.016877396032214,1.51524309330853E-05
1885,37.7887027883116,4.2835865020752,-0.035425551235676,9.78733158111572,1.23873405755148E-06,0.001050491933711,1.1009528861905E-06,-18.0430507659912,61.1824111938477,0.001779441838153,-0.596628546714783,-0.01747845299542,1.58620023285039E-05
1886,37.7987027880881,-0.13695402443409,-0.001455130521208,9.83331108093262,-4.28956525411195E-07,0.000390755390981,1.29641273360903E-06,-17.9882678985596,61.1818389892578,0.001775703392923,-0.59662789106369,-0.017703849822283,1.56159967446001E-05
1887,37.8087027878646,4.34330892562866,0.005196731071919,9.78763389587402,-9.48572392189817E-07,0.001065871794708,3.11293229060539E-06,-17.933048248291,61.1812629699707,0.001769866910763,-0.596625983715057,-0.018311735242605,1.50719470184413E-05
1888,37.8187027876411,-0.076812840998173,-0.000830465345643,9.83405685424805,-2.07348918479511E-07,0.000404261198128,4.29409567459516E-07,-17.8778400421143,61.1806869506836,0.001766433706507,-0.596625864505768,-0.018543962389231,1.49530706039513E-05
1889,37.8287027874176,4.40345096588135,0.005821283906698,9.78716564178467,-5.84218469157349E-08,0.001067311037332,4.48411901743384E-06,-17.8221893310547,61.1801071166992,0.00176086416468,-0.596623420715332,-0.019158679991961,1.49187499118852E-05
1890,37.8387027871941,-0.056668817996979,-0.00062221015105,9.83329010009766,-1.74664283036918E-08,0.000406219885917,4.18295485360432E-06,-17.766544342041,61.1795234680176,0.001757621765137,-0.596620917320251,-0.019390905275941,1.49079369293759E-05
1891,37.8487027869705,4.48400545120239,-0.033343814313412,9.78821659088135,1.98362613446079E-06,0.001058168476447,6.51383334115963E-06,-17.7104530334473,61.1789398193359,0.001752357464284,-0.596617221832275,-0.019991962239146,1.60431700351182E-05
1892,37.858702786747,0.003053120803088,0.040000718086958,9.83289051055908,1.36343294343533E-06,0.000397847848944,3.71461942449969E-06,-17.6543617248535,61.178352355957,0.001749382005073,-0.596614956855774,-0.02021735906601,1.6823618352646E-05
1893,37.8687027865235,4.48414659500122,-0.033344157040119,9.78777122497559,8.33282740586583E-07,0.001039345050231,8.70456369739259E-06,-17.5978221893311,61.1777610778809,0.001744346576743,-0.596610128879547,-0.020818416029215,1.72992477018852E-05
1894,37.8787027863,0.043608255684376,0.000419451767812,9.83325386047363,-1.93332923004164E-07,0.000381486403057,6.89842727297219E-06,-17.5412769317627,61.1771697998047,0.001741638174281,-0.596606135368347,-0.021036980673671,1.7187041521538E-05
1895,37.8887027860765,4.52386474609375,0.007069477811456,9.78807735443115,2.30291320235665E-07,0.001015033107251,8.51679214974865E-06,-17.484281539917,61.1765747070313,0.001736907870509,-0.596601188182831,-0.02161754667759,1.73171811184147E-05
1896,37.8987027858529,0.083740599453449,0.000836057704873,9.83247661590576,9.56869484980416E-07,0.000357808748959,6.50471292829025E-06,-17.4272766113281,61.1759796142578,0.001734428340569,-0.59659743309021,-0.021822452545166,1.78639929799829E-05
1897,37.9087027856294,4.5439944267273,0.007276927586645,9.7883882522583,-1.14643182769214E-06,0.000983832986094,1.06072066046181E-05,-17.3698196411133,61.1753807067871,0.001729965209961,-0.596591353416443,-0.022382529452443,1.72047857631696E-05
1898,37.9187027854059,0.103868290781975,0.001044279430062,9.83208656311035,1.07990888409404E-06,0.000332101626555,8.49982097861357E-06,-17.3123512268066,61.1747779846191,0.001727714552544,-0.596586585044861,-0.022573774680495,1.78216396307107E-05
1899,37.9287027851824,4.58411741256714,0.007692743558437,9.78907775878906,1.46843206039193E-06,0.000950437039137,1.1692676707753E-05,-17.2544250488281,61.1741752624512,0.001723556430079,-0.596579790115356,-0.023113358765841,1.86602756002685E-05
1900,37.9387027849589,0.144406691193581,-0.038537055253983,9.83168697357178,-1.07926166492689E-06,0.000301591731841,9.22033359529451E-06,-17.1964855194092,61.1735687255859,0.00172157282941,-0.596574544906616,-0.023297773674131,1.80397601070581E-05
1901,37.9487027847354,4.58382129669189,0.04768954962492,9.78864192962647,7.68648533266969E-07,0.000913607596885,1.26343211377389E-05,-17.1380882263184,61.1729583740234,0.001717643695883,-0.596567392349243,-0.023816868662834,1.84771924978122E-05
1902,37.9587027845118,0.144522711634636,-0.038536936044693,9.8316822052002,8.17613056369737E-07,0.000269134383416,1.22353603728698E-05,-17.0796756744385,61.1723480224609,0.001715888967738,-0.59656023979187,-0.023973962292075,1.89427391887875E-05
1903,37.9687027842883,4.60434818267822,0.007898827083409,9.78858184814453,3.88521982586099E-07,0.000876021862496,1.47388072946342E-05,-17.0208034515381,61.1717338562012,0.001712188706733,-0.596551835536957,-0.024472566321492,1.91617709788261E-05
1904,37.9787027840648,0.203795522451401,0.042083449661732,9.83165645599365,3.63519689017266E-07,0.00023610376229,1.18906455099932E-05,-16.9619121551514,61.1711158752441,0.00171066285111,-0.596544981002808,-0.024609170854092,1.93671367014758E-05
1905,37.9887027838413,4.58487129211426,-0.032308425754309,9.78853797912598,8.04319483904692E-07,0.000837331928778,1.6582096577622E-05,-16.9025611877441,61.1704978942871,0.001707191462629,-0.596535503864288,-0.025087283924222,1.9823870388791E-05
1906,37.9987027836178,0.224729135632515,-0.037703990936279,9.83126544952393,-1.78912429760203E-07,0.000202382536372,1.54165518324589E-05,-16.843189239502,61.1698760986328,0.001705856295303,-0.596526622772217,-0.025203397497535,1.97174867935246E-05
1907,38.0087027833943,4.58413648605347,0.047685880213976,9.78887367248535,1.51994288444257E-06,0.000798685126938,1.70232360687805E-05,-16.7833595275879,61.1692504882813,0.001702613779344,-0.596516966819763,-0.025661019608379,2.05840169655858E-05
1908,38.0187027831707,0.254389584064484,0.002606281079352,9.83125114440918,5.80471812838823E-08,0.000168763435795,1.5317467841669E-05,-16.7235050201416,61.1686248779297,0.00170150748454,-0.596516966819763,-0.025661019608379,2.05840169655858E-05
1909,38.0287027829472,4.59464311599731,0.007790552917868,9.78844547271729,-2.02970198870389E-07,0.000760115857702,1.9350378352101E-05,-16.6631908416748,61.1679954528809,0.001698455773294,-0.596497118473053,-0.026193773373962,2.04920161195332E-05
1910,38.0387027827237,0.254897445440292,-0.037391655147076,9.83124732971191,-2.73380436510706E-07,0.000135881520691,1.82760832103668E-05,-16.6028518676758,61.167366027832,0.001697540283203,-0.596497118473053,-0.026193773373962,2.04920161195332E-05
1911,38.0487027825002,4.59472560882568,0.007788940798491,9.78802585601807,2.58824320553686E-06,0.000723219767679,2.15999298234237E-05,-16.5420532226563,61.1667327880859,0.001694641076028,-0.59647411108017,-0.026678716763854,2.18078366742702E-05
1912,38.0587027822767,0.294145613908768,0.04302054271102,9.83122634887695,8.82834910953534E-07,0.000103421203676,1.87827772606397E-05,-16.4812259674072,61.1660957336426,0.001693878090009,-0.59647411108017,-0.026678716763854,2.18078366742702E-05
1913,38.0687027820532,4.57522296905518,-0.032418929040432,9.78876113891602,-2.02501297508206E-07,0.000687655003276,2.25430721911835E-05,-16.419942855835,61.1654586791992,0.001691207871772,-0.596450328826904,-0.027143171057105,2.21865229832474E-05
1914,38.0787027818296,0.304641008377075,0.003126757219434,9.83083915710449,1.45114859151363E-06,7.12028922862373E-05,2.14660267374711E-05,-16.3586292266846,61.1648178100586,0.001690635690466,-0.596450328826904,-0.027143171057105,2.21865229832474E-05
1915,38.0887027816061,4.58487558364868,0.007681056857109,9.78795909881592,9.12516384232731E-07,0.000653572496958,2.61382992903236E-05,-16.2968559265137,61.1641731262207,0.001688079792075,-0.596423149108887,-0.027552980929613,2.35278257605387E-05
1916,38.0987027813826,0.304711133241653,0.003126844530925,9.8304557800293,-1.03867225931253E-08,4.18930831074249E-05,2.26804622798227E-05,-16.2350540161133,61.1635284423828,0.001687583862804,-0.596423149108887,-0.027552980929613,2.35278257605387E-05
1917,38.1087027811591,4.58535575866699,-0.032318882644177,9.78907299041748,2.93282145236162E-08,0.000620184640866,2.31772046390688E-05,-16.172794342041,61.1628799438477,0.001685218769126,-0.596396744251251,-0.027914982289076,2.35259631153895E-05
1918,38.1187027809356,0.314357370138168,0.043228626251221,9.83006858825684,-2.47510769213477E-07,1.43359811772825E-05,2.09541994991014E-05,-16.1105041503906,61.1622314453125,0.001684875460342,-0.596396744251251,-0.027914982289076,2.35259631153895E-05
1919,38.128702780712,4.57541656494141,-0.032425101846457,9.78866958618164,-1.03574464560552E-07,0.00058874808019,2.4801858671708E-05,-16.0477561950684,61.1615753173828,0.001682624802925,-0.59637051820755,-0.028276981785894,2.33119862969033E-05
1920,38.1387027804885,0.324418127536774,0.043332532048225,9.83082294464111,4.51911063237276E-07,-1.22378369269427E-05,2.17387932934798E-05,-15.984974861145,61.1609230041504,0.001682472182438,-0.59637051820755,-0.028276981785894,2.33119862969033E-05
1921,38.148702780265,4.56547021865845,-0.032531142234802,9.78788757324219,6.3858828980301E-07,0.000558896921575,2.33752198255388E-05,-15.9217395782471,61.1602630615234,0.001680335961282,-0.596344649791718,-0.028591170907021,2.39239816437475E-05
1922,38.1587027800415,0.364886194467545,0.003750981530175,9.83080196380615,-1.35031348236225E-06,-3.72836366295814E-05,1.49071756823105E-05,-15.8584680557251,61.1596031188965,0.001680297777057,-0.596344649791718,-0.028591170907021,2.39239816437475E-05
1923,38.168702779818,4.52510452270508,0.007048676721752,9.7882661819458,-1.48251649534359E-06,0.000531165802386,1.65436285897158E-05,-15.7947435379028,61.1589393615723,0.001678314176388,-0.59632670879364,-0.028871208429337,2.22919152292889E-05
1924,38.1787027795945,0.374933332204819,0.003854665439576,9.83003044128418,-1.19990374969348E-06,-6.05516688665375E-05,1.24438074635691E-05,-15.7309827804565,61.1582756042481,0.001678352360614,-0.59632670879364,-0.028871208429337,2.22919152292889E-05
1925,38.1887027793709,4.54514789581299,0.007255413103849,9.78900051116943,-1.33207731778384E-06,0.000505820324179,1.32132499857107E-05,-15.6667671203613,61.1576042175293,0.001676521264017,-0.596311926841736,-0.029130754992366,2.08337805815972E-05
1926,38.1987027791474,0.364978015422821,0.003750245319679,9.82927227020264,-5.8483715292823E-07,-8.24837625259534E-05,1.14210988613195E-05,-15.6025171279907,61.1569366455078,0.001676635700278,-0.596311926841736,-0.029130754992366,2.08337805815972E-05
1927,38.2087027789239,4.51560401916504,-0.033055849373341,9.78861331939697,-7.25892050468247E-07,0.000480871531181,1.23963473015465E-05,-15.5378141403198,61.1562614440918,0.001674842787907,-0.596298277378082,-0.029356151819229,2.00758095161291E-05
1928,38.2187027787004,0.394598960876465,0.044060077518225,9.82963752746582,-8.96195899713348E-07,-0.000102655634691,9.64082573773339E-06,-15.4730730056763,61.1555900573731,0.001675033476204,-0.596298277378082,-0.029356151819229,2.00758095161291E-05
1929,38.2287027784769,4.51564168930054,-0.03305671364069,9.78936004638672,1.16692729079659E-06,0.000458595342934,9.95337086351356E-06,-15.4078817367554,61.1549110412598,0.001673393184319,-0.59628701210022,-0.02957471832633,2.0225170374033E-05
1930,38.2387027782534,0.395052552223206,0.004062193445861,9.82925224304199,-1.2429064781827E-06,-0.000121168137412,8.40081429487327E-06,-15.3426513671875,61.1542320251465,0.001673698425293,-0.59628701210022,-0.02957471832633,2.0225170374033E-05
1931,38.2487027780298,4.4952540397644,0.006732048466802,9.78859424591064,-4.04546057097832E-07,0.000437327253167,8.84854944160907E-06,-15.2769708633423,61.1535491943359,0.001672096201219,-0.596277117729187,-0.029738642275333,1.92761526704999E-05
1932,38.2587027778063,0.40466383099556,0.04416386410594,9.82924842834473,8.16565517425261E-08,-0.000138703617267,6.07881975156488E-06,-15.2112512588501,61.1528663635254,0.001672439510003,-0.596277117729187,-0.029738642275333,1.92761526704999E-05
1933,38.2687027775828,4.4861159324646,-0.073368489742279,9.78973007202148,-1.89018464880064E-06,0.000417885166826,7.96369022282306E-06,-15.1450824737549,61.1521759033203,0.001670989906415,-0.596269130706787,-0.029902566224337,1.82357325684279E-05
1934,38.2787027773593,0.40469154715538,0.044163629412651,9.82848358154297,-8.37895299810043E-07,-0.000154175504576,5.78048593524727E-06,-15.0788745880127,61.1514892578125,0.001671409583651,-0.596269130706787,-0.029902566224337,1.82357325684279E-05
1935,38.2887027771358,4.49530839920044,0.006730522494763,9.78933238983154,-1.30344847093511E-06,0.000399161886889,5.36648713023169E-06,-15.0122175216675,61.1507949829102,0.001669998164289,-0.596262633800507,-0.030052831396461,1.70054900081595E-05
1936,38.2987027769123,0.405133843421936,0.004165540914983,9.82886409759522,-7.41092833322909E-07,-0.000168571132235,3.47920513377176E-06,-14.9455213546753,61.1501007080078,0.00167049409356,-0.596262633800507,-0.030052831396461,1.70054900081595E-05
1937,38.3087027766887,4.46574687957764,-0.033580046147108,9.78895664215088,-5.56933230200229E-07,0.000382665515644,5.82819893679698E-06,-14.8783769607544,61.1494026184082,0.001669120742008,-0.596257328987122,-0.03017577342689,1.62589712999761E-05
1938,38.3187027764652,0.414718210697174,0.044267281889916,9.828857421875,2.35504529655373E-07,-0.000181964729563,3.71836290469218E-06,-14.8111934661865,61.1487045288086,0.001669654855505,-0.596255362033844,-0.030059661716223,1.63927907124162E-05
1939,38.3287027762417,4.47576284408569,-0.03347634896636,9.78932857513428,-8.19191996015434E-07,0.000367153232219,3.46906472259434E-06,-14.7435626983643,61.1480026245117,0.001668357755989,-0.596253454685211,-0.030271396040917,1.59223527589347E-05
1940,38.3387027760182,0.405152589082718,0.004165256395936,9.82886123657227,-3.19906888535115E-07,-0.000193332598428,4.22803026367546E-07,-14.6758918762207,61.1472969055176,0.001668968121521,-0.596253097057343,-0.030162114650011,1.57389767991845E-05
1941,38.3487027757947,4.45536422729492,0.006313154939562,9.78933048248291,-7.35692111675235E-08,0.000352588220267,3.16797627419874E-06,-14.6077756881714,61.1465911865234,0.001667747506872,-0.596251368522644,-0.030367018654943,1.56958176376065E-05
1942,38.3587027755711,0.415165901184082,0.004269263707101,9.82847404479981,-2.78746171034072E-07,-0.000205325995921,2.15807722270256E-06,-14.5396184921265,61.145881652832,0.001668395940214,-0.596250057220459,-0.030244076624513,1.55354482558323E-05
1943,38.3687027753476,4.45537614822388,0.006313014775515,9.7893238067627,3.29070246607444E-07,0.000339132355293,9.77281843006494E-07,-14.4710168838501,61.1451683044434,0.001667213393375,-0.596249520778656,-0.030435321852565,1.57237609528238E-05
1944,38.3787027751241,0.41517761349678,0.004269233439118,9.82847690582275,-6.60685600450961E-07,-0.000214621046325,-1.2674255458478E-06,-14.4023742675781,61.1444549560547,0.001667900010943,-0.596250355243683,-0.03031237795949,1.53455712279538E-05
1945,38.3887027749006,4.42580556869507,-0.033996988087893,9.78933143615723,6.12102724062424E-08,0.000327717250912,-3.57922800731103E-07,-14.333288192749,61.1437377929687,0.00166675564833,-0.596250474452972,-0.030503623187542,1.5380757758976E-05
1946,38.3987027746771,0.444770276546478,0.044579181820154,9.82846069335938,-9.25340486901405E-07,-0.000224095841986,-1.85268709174125E-06,-14.26416015625,61.1430206298828,0.001667480450124,-0.596251547336578,-0.030373848974705,1.48511107909144E-05
1947,38.4087027744536,4.40581607818604,-0.034205034375191,9.78934097290039,-3.52130115288674E-07,0.000316232151818,-2.77750314126024E-06,-14.1945905685425,61.1422996520996,0.00166637415532,-0.596253097057343,-0.030558263882995,1.46502388815861E-05
1948,38.41870277423,0.445195704698563,0.004581209272146,9.82807540893555,-1.42492160648544E-06,-0.000232076126849,-5.1958472795377E-06,-14.1249780654907,61.1415748596191,0.001667098957114,-0.596256136894226,-0.030428491532803,1.38354307637201E-05
1949,38.4287027740065,4.41540622711182,0.005897178314626,9.79009628295898,-2.81865709439444E-07,0.000305544759613,-5.82615939492825E-06,-14.0549240112305,61.1408500671387,0.001666069030762,-0.596259355545044,-0.030599245801568,1.36756734718801E-05
1950,38.438702773783,0.424786150455475,0.044370882213116,9.82770442962647,-6.72146484248515E-07,-0.000239424538449,-9.235052857548E-06,-13.9848279953003,61.1401214599609,0.001666831900366,-0.596264660358429,-0.030462641268969,1.32933673739899E-05
1951,38.4487027735595,4.39624547958374,-0.074305765330792,9.78972148895264,4.82663267575845E-07,0.000296056910884,-1.05368444565102E-05,-13.9142932891846,61.1393890380859,0.001665801974013,-0.596270680427551,-0.030633397400379,1.35731597765698E-05
1952,38.458702773336,0.434791475534439,0.044474814087153,9.8277006149292,-2.86863860310405E-06,-0.000245775619987,-1.29870923046838E-05,-13.8437147140503,61.1386566162109,0.001666564960033,-0.596278071403503,-0.03049679286778,1.19335254566977E-05
1953,38.4687027731125,4.39541673660278,0.005690628662705,9.79048442840576,-1.79253811438684E-06,0.000287047063466,-1.42181388582685E-05,-13.7726974487305,61.1379203796387,0.001665611285716,-0.596286177635193,-0.030653886497021,1.09108495962573E-05
1954,38.4787027728889,0.446041941642761,-0.075414769351482,9.82731056213379,-1.0928363280982E-06,-0.00025257395464,-1.59767423610901E-05,-13.7016363143921,61.1371765136719,0.001666412339546,-0.596295356750488,-0.030510453507304,1.02895392046776E-05
1955,38.4887027726654,4.36458873748779,0.08537519723177,9.79011917114258,-1.11037991246121E-06,0.000279969681287,-1.42195058288053E-05,-13.6301403045654,61.1364326477051,0.001665458665229,-0.596303522586823,-0.030667547136545,9.65774142969167E-06
1956,38.4987027724419,0.446044504642487,-0.075414769351482,9.82769107818604,-2.8435479748623E-07,-0.000257664796663,-1.52821976371342E-05,-13.5585985183716,61.1356887817383,0.001666297903284,-0.596312344074249,-0.030524114146829,9.49949571804609E-06
1957,38.5087027722184,4.36500835418701,0.045378595590592,9.79011726379395,-4.93801962875295E-07,0.000271873548627,-1.46595048136078E-05,-13.4866218566895,61.1349411010742,0.001665382296778,-0.596320748329163,-0.030688038095832,9.22097933653276E-06
1958,38.5187027719949,0.445629388093948,-0.035416807979345,9.82769393920898,4.08474221558208E-07,-0.000262189976638,-1.58482635015389E-05,-13.4146003723145,61.1341896057129,0.001666259719059,-0.596329808235168,-0.030530944466591,9.45991814660374E-06
1959,38.5287027717713,4.35542488098145,0.00527808861807,9.79012012481689,4.05989993623734E-07,0.000265255919658,-1.46004276757594E-05,-13.3421440124512,61.133430480957,0.001665382296778,-0.596338152885437,-0.030688038095832,9.69696702668443E-06
1960,38.5387027715478,0.455212086439133,0.004685262218118,9.82692813873291,-1.15870541606E-07,-0.000265838112682,-1.433289344277E-05,-13.269642829895,61.1326751708984,0.001666221534833,-0.596346378326416,-0.030530944466591,9.6349822342745E-06
1961,38.5487027713243,4.33542633056641,0.005071103107184,9.79089164733887,1.41727653613088E-07,0.000258966145338,-1.26065642689355E-05,-13.1967096328735,61.1319122314453,0.001665382296778,-0.596353590488434,-0.030688038095832,9.72005182120483E-06
1962,38.5587027711008,0.46562671661377,-0.035208351910114,9.8269214630127,9.12570428113213E-08,-0.000269476498943,-1.27172661450459E-05,-13.1237297058105,61.1311492919922,0.001666259719059,-0.596360921859741,-0.030524114146829,9.77624040388037E-06
1963,38.5687027708773,4.30542421340942,0.004759851377457,9.79053020477295,4.05351130439158E-07,0.000252778147114,-9.26337997952942E-06,-13.0503196716309,61.1303825378418,0.001665420481004,-0.596366167068481,-0.030667547136545,1.00113484222675E-05
1964,38.5787027706538,0.474791169166565,0.044891536235809,9.82691478729248,1.05736660316325E-07,-0.000273563986411,-9.03703403309919E-06,-12.9768629074097,61.1296195983887,0.001666297903284,-0.596371352672577,-0.030510453507304,1.00746756288572E-05
1965,38.5887027704302,4.30583810806274,-0.035237170755863,9.79053401947022,7.99529232153873E-07,0.00024736035266,-7.81885410106042E-06,-12.9029760360718,61.1288452148438,0.001665458665229,-0.596375823020935,-0.030653886497021,1.0535121873545E-05
1966,38.5987027702067,0.475205570459366,0.004893977195024,9.82767677307129,1.31957301618968E-06,-0.000275453203358,-6.21106482867617E-06,-12.8290414810181,61.1280746459961,0.001666412339546,-0.596379399299622,-0.03049679286778,1.12930911200237E-05
1967,38.6087027699832,4.29541873931885,0.004657281097025,9.78977680206299,1.59460523718735E-06,0.000242133493884,-3.3565993362572E-06,-12.7546787261963,61.1273002624512,0.001665573101491,-0.596381366252899,-0.030633397400379,1.22077681226074E-05
1968,38.6187027697597,0.465202569961548,0.004790106322616,9.82768440246582,2.41898760577897E-07,-0.000278028222965,-3.92640731661231E-06,-12.680269241333,61.126522064209,0.001666526775807,-0.596383571624756,-0.030476301908493,1.23475410873652E-05
1969,38.6287027695362,4.28541707992554,0.00455361045897,9.79016304016113,1.30824344068969E-06,0.000237736210693,-2.21043387682585E-06,-12.6054334640503,61.1257400512695,0.001665725721978,-0.596384882926941,-0.030619736760855,1.3097797818773E-05
1970,38.6387027693127,0.475615859031677,-0.03510332852602,9.82729721069336,1.72915224538883E-06,-0.000280492211459,-9.52539892296045E-07,-12.5305490493774,61.1249580383301,0.001666679396294,-0.596385419368744,-0.030462641268969,1.40888032547082E-05
1971,38.6487027690891,4.25499773025513,0.044239237904549,9.79018211364746,-3.35263678152842E-07,0.00023317389423,2.95185395771114E-06,-12.4552402496338,61.1241722106934,0.001665878226049,-0.59638375043869,-0.030592415481806,1.38958257593913E-05
1972,38.6587027688656,0.485609471797943,-0.034999214112759,9.82729244232178,8.63797367856023E-07,-0.000282691180473,2.33030755225627E-06,-12.3798828125,61.1233863830566,0.001666831900366,-0.59638237953186,-0.030428491532803,1.4390026080946E-05
1973,38.6687027686421,4.26540756225586,0.004345255438238,9.7901782989502,2.68791922053424E-07,0.000228958058869,5.6376834436378E-06,-12.3041000366211,61.1225967407227,0.001666030846536,-0.596379160881043,-0.030558263882995,1.45423055073479E-05
1974,38.6787027684186,0.484772086143494,0.044996466487646,9.82729339599609,4.3732617882597E-07,-0.000283777160803,5.36355537406052E-06,-12.2282686233521,61.1218070983887,0.001666984520853,-0.596376001834869,-0.030401170253754,1.47912614920642E-05
1975,38.6887027681951,4.23581981658936,-0.035965286195278,9.79057788848877,6.28998236607004E-07,0.000225614945521,7.69451344240224E-06,-12.1520147323608,61.1210098266602,0.001666221534833,-0.596371591091156,-0.030524114146829,1.51492977238377E-05
1976,38.6987027679716,0.495181798934936,0.005102797411382,9.82690525054932,9.35625450892985E-07,-0.000284977402771,7.77668446971802E-06,-12.0757112503052,61.1202125549316,0.00166717520915,-0.596367120742798,-0.030367018654943,1.56829719344387E-05
1977,38.708702767748,4.22539949417114,0.003927890211344,9.79058742523193,1.32503407712647E-06,0.000222575676162,1.10929695438244E-05,-11.9989862442017,61.1194114685059,0.001666412339546,-0.596360862255096,-0.03049679286778,1.64388038683683E-05
1978,38.7187027675245,0.495589941740036,-0.034895997494459,9.826904296875,-1.45309359140811E-05,-0.000286185153527,-7.87117314757779E-05,-11.922212600708,61.1186103820801,0.001667366013862,-0.596405863761902,-0.030319208279252,8.13713995739818E-06
1979,38.728702767301,4.21497440338135,0.04382936283946,9.79021644592285,-2.75020065600984E-05,0.000218480825424,-0.000171460967977,-11.8450183868408,61.117805480957,0.001666564960033,-0.596504211425781,-0.030442152172327,-2.60551059894087E-11
1980,38.7387027670775,0.505582988262177,-0.034796547144652,9.82766246795654,-2.80379517789697E-05,-0.000287031434709,-0.000225712487008,-11.7677736282349,61.117000579834,0.001667556702159,-0.596633613109589,-0.030278226360679,-3.05176035908516E-05
1981,38.748702766854,4.17496967315674,0.043429188430309,9.79062175750732,-3.35326840286143E-05,0.000215911160922,-0.000289365620119,-11.6901111602783,61.1161918640137,0.001666831900366,-0.596799194812775,-0.030401170253754,-3.05175763060106E-05
1982,38.7587027666304,0.525574266910553,-0.034590348601341,9.82612609863281,-2.82212131423876E-05,-0.000287276634481,-0.000320375809679,-11.6123971939087,61.1153793334961,0.001667747506872,-0.596982896327972,-0.030237246304751,-6.10351526120212E-05
1983,38.7687027664069,4.17579746246338,-0.036543197929859,9.79138374328613,-3.0043387596379E-05,0.00021329561423,-0.000362300634151,-11.5342664718628,61.114559173584,0.001667022705078,-0.597190618515015,-0.030367018654943,-6.10351526120212E-05
1984,38.7787027661834,0.505155265331268,0.005197536200285,9.8288106918335,-2.37842104979791E-05,-0.000287957838736,-0.000373485527234,-11.4560852050781,61.1137390136719,0.001668205251917,-0.597404301166534,-0.030209925025702,-9.1552734375E-05
1985,38.7887027659599,4.16537094116211,0.00337728089653,9.78796100616455,-2.26154770643916E-05,0.000210926460568,-0.000398170028348,-11.3774871826172,61.1129150390625,0.001667404081672,-0.597632586956024,-0.030319208279252,-9.1552734375E-05
1986,38.7987027657364,0.524725198745728,0.04540279507637,9.8268928527832,-1.65766323334537E-05,-0.000288284209091,-0.000397810945287,-11.2988386154175,61.1120948791504,0.001668319688179,-0.59786069393158,-0.030148454010487,-0.0001220703125
1987,38.8087027655129,4.15620040893555,-0.07669422775507,9.79140281677246,-1.49163197420421E-05,0.000207568868063,-0.000413003814174,-11.2197751998901,61.1112632751465,0.001667594886385,-0.598097085952759,-0.030271396040917,-0.000122070305224
1988,38.8187027652893,0.514719486236572,0.045302614569664,9.82689571380615,-8.6941035988275E-06,-0.000288688082946,-0.000403466547141,-11.1406602859497,61.1104316711426,0.001668586744927,-0.598328292369843,-0.030114302411676,-0.000122070305224
1989,38.8287027650658,4.1257758140564,-0.036976143717766,9.79027843475342,-9.00322629604489E-06,0.000205275704502,-0.00040747053572,-11.0611324310303,61.1096000671387,0.001667823758908,-0.598561882972717,-0.030223585665226,-0.000122070305224
1990,38.8387027648423,0.534708857536316,0.045515716075897,9.8272705078125,-2.88765090772358E-06,-0.000288896815619,-0.000394981121644,-10.9815521240234,61.1087684631348,0.00166881561745,-0.598788321018219,-0.030059661716223,-0.000122070290672
1991,38.8487027646188,4.13576793670654,-0.036839049309492,9.7906551361084,-4.65832772533759E-06,0.000203171264729,-0.000394857081119,-10.9015598297119,61.1079292297363,0.001668090815656,-0.599014520645142,-0.03017577342689,-0.000122070305224
1992,38.8587027643953,0.525119960308075,0.005417435895652,9.82651138305664,-7.11200755176833E-07,-0.000288241659291,-0.00038220663555,-10.821515083313,61.1070899963379,0.001669044489972,-0.599233508110046,-0.030018679797649,-0.000122070305224
1993,38.8687027641718,4.10534238815308,0.002876240527257,9.791823387146,1.55617340169556E-06,0.00020094680076,-0.000376836018404,-10.7410593032837,61.1062431335449,0.001668395940214,-0.599449336528778,-0.030121132731438,-0.00012207027612
1994,38.8787027639482,0.534689605236053,0.045523717999458,9.82536220550537,3.92046968045179E-06,-0.000288037757855,-0.000356952281436,-10.660551071167,61.1054039001465,0.001669311430305,-0.599653780460358,-0.029957208782435,-0.000122070305224
1995,38.8887027637247,4.10575437545776,-0.037092514336109,9.79220676422119,1.65080825809127E-06,0.000198967158212,-0.000351563183358,-10.5796337127686,61.1045532226563,0.001668662996963,-0.599855244159699,-0.030080150812864,-0.000122070290672
1996,38.8987027635012,0.535103499889374,0.00552952894941,9.82765007019043,5.32197873326368E-06,-0.000288246985292,-0.000332468101988,-10.4986629486084,61.1037063598633,0.001669807359576,-0.600045561790466,-0.029923057183623,-0.000122070290672
1997,38.9087027632777,4.07574319839478,-0.037379831075668,9.7876501083374,4.28308521804865E-06,0.000196162873181,-0.000324799737427,-10.4172849655151,61.1028518676758,0.001668930053711,-0.600231885910034,-0.030018679797649,-0.000122070290672
1998,38.9187027630542,0.554674088954926,0.045740250498056,9.83031177520752,6.33819263384794E-06,-0.000287055416266,-0.000306101952447,-10.3358516693115,61.1020011901856,0.00167011260055,-0.600407123565674,-0.029861586168408,-0.000122070290672
1999,38.9287027628306,4.0590991973877,-0.357480704784393,9.78880405426025,-0.000453593820566,0.000193671890884,-0.002969597931951,-10.2540130615234,61.1011085510254,0.001669387798756,-0.602108597755432,-0.029964039102197,-0.000366210879292
2000,38.9387027626071,0.546770036220551,-0.154416933655739,9.82726192474365,-0.000627193599939,-0.000286978349322,-0.004656416364014,-10.172122001648,61.1002006530762,0.001670417725109,-0.604776620864868,-0.029800113290548,-0.000732421758585
2001,38.9487027623836,4.05531024932861,0.00276688602753,9.79071998596191,-0.000472929561511,0.000192841223907,-0.004651961382478,-10.0898246765137,61.0992851257324,0.00166973110754,-0.607441842556,-0.029923057183623,-0.001007079845294
2002,38.9587027621601,0.555070161819458,0.005651539657265,9.82611560821533,-0.000319477258017,-0.000287171424134,-0.004498369526118,-10.0074729919434,61.0983734130859,0.001670684781857,-0.610019147396088,-0.029745472595096,-0.00119018543046
2003,38.9687027619366,4.04658317565918,-0.117022268474102,9.79186916351318,-0.000235596249695,0.000191628772882,-0.004465771839023,-9.92471694946289,61.0974464416504,0.001670036232099,-0.612578094005585,-0.029861586168408,-0.001312255626544
2004,38.9787027617131,0.544632494449616,0.045553117990494,9.8257417678833,-0.000134179543238,-0.000285780726699,-0.004233765881509,-9.8419075012207,61.0965232849121,0.001670989906415,-0.615003824234009,-0.02969766035676,-0.001403808360919
2005,38.9887027614895,4.03529024124146,0.003175618359819,9.79226398468018,-9.40777099458501E-05,0.000189556609257,-0.004146730992943,-9.75869464874268,61.0955924987793,0.001670379657298,-0.617379605770111,-0.029800113290548,-0.001464843866415
2006,38.998702761266,0.545050799846649,0.005588488187641,9.8257417678833,-2.87592065433273E-05,-0.000285407091724,-0.003915898036212,-9.6754264831543,61.0946655273438,0.001671371399425,-0.619623124599457,-0.029636189341545,-0.00146484375
2007,39.0087027610425,4.02571487426758,-0.036618836224079,9.7899808883667,-1.30546623040573E-05,0.00018746049318,-0.003816763171926,-9.59175777435303,61.0937309265137,0.001670570345595,-0.62181031703949,-0.029745472595096,-0.001464843517169
2008,39.018702760819,0.565476179122925,-0.034151267260313,9.82725811004639,2.42765745497309E-05,-0.000285266607534,-0.003616298083216,-9.50803279876709,61.0927925109863,0.001671524019912,-0.623882174491882,-0.029581546783447,-0.00146484375
2009,39.0287027605955,3.98571252822876,-0.036764781922102,9.79229354858398,2.99981566058705E-05,0.000186558594578,-0.00349311134778,-9.42391014099121,61.0918426513672,0.00167091365438,-0.625883638858795,-0.02969766035676,-0.00143432605546
2010,39.038702760372,0.574154675006866,0.085999496281147,9.82458400726318,6.15428361925296E-05,-0.00028393015964,-0.003264871425927,-9.33972930908203,61.0909004211426,0.00167179107666,-0.627754271030426,-0.029540566727519,-0.001403808360919
2011,39.0487027601484,3.99614477157593,-0.076386153697968,9.79496383666992,5.49444521311671E-05,0.000184842589078,-0.003165285801515,-9.25515079498291,61.0899505615234,0.001671371399425,-0.629567921161652,-0.029636189341545,-0.001373291015625
2012,39.0587027599249,0.565019905567169,0.005944701842964,9.82268047332764,7.74587024352513E-05,-0.000283822417259,-0.002946719992906,-9.17051601409912,61.088996887207,0.001672248821706,-0.631255865097046,-0.029479095712304,-0.001312255626544
2013,39.0687027597014,3.97569680213928,-0.03636385127902,9.79269123077393,7.24685523891821E-05,0.000184347067261,-0.002815075684339,-9.08548355102539,61.0880393981934,0.001671600271948,-0.632869005203247,-0.02957471832633,-0.001281738164835
2014,39.0787027594779,0.564567744731903,0.045988284051418,9.82573413848877,8.62903689267114E-05,-0.000282400113065,-0.002614154480398,-9.00039577484131,61.0870819091797,0.001672553946264,-0.634366989135742,-0.029417622834444,-0.001220702892169
2015,39.0887027592544,3.96524548530579,0.003741026623175,9.79193782806397,7.73322972236201E-05,0.000181885829079,-0.002489180071279,-8.91491222381592,61.0861206054688,0.001671905512922,-0.635793149471283,-0.029520075768232,-0.00119018543046
2016,39.0987027590309,0.575888514518738,-0.073850557208061,9.82534408569336,8.88282884261571E-05,-0.000281165528577,-0.002307106973603,-8.82937049865723,61.0851554870605,0.001672821003012,-0.637115061283112,-0.029356151819229,-0.00112915027421
2017,39.1087027588073,3.95523595809937,0.003824083833024,9.79270935058594,7.75785883888602E-05,0.000180389659363,-0.002209102269262,-8.74343490600586,61.0841827392578,0.00167221063748,-0.638380587100983,-0.029458604753018,-0.0010986328125
2018,39.1187027585838,0.575435996055603,-0.03381310030818,9.82572937011719,8.62173110363074E-05,-0.000280393491266,-0.002039643470198,-8.65744209289551,61.0832061767578,0.001673202496022,-0.639549195766449,-0.029301509261131,-0.001037597539835
2019,39.1287027583603,3.92478203773499,0.043658386915922,9.79234886169434,7.86979289841838E-05,0.000179102571565,-0.001924187992699,-8.5710563659668,61.0822296142578,0.001672630314715,-0.640651941299439,-0.029410792514682,-0.001007080078125
2020,39.1387027581368,0.609019637107849,-0.353451251983643,9.82456016540527,-0.000374619790819,-0.000279892847175,-0.004435880575329,-8.48461246490479,61.0812187194824,0.001673545804806,-0.643193244934082,-0.029253698885441,-0.001220702892169
2021,39.1487027579133,3.89567136764526,-0.036376979202032,9.79274654388428,-0.000365089537809,0.000177835230716,-0.004891281016171,-8.39777755737305,61.0802001953125,0.001672935439274,-0.645995855331421,-0.029349321499467,-0.001403808244504
2022,39.1587027576898,0.604968190193176,0.006522620096803,9.82647895812988,-0.000290611817036,-0.00027933032834,-0.005012713372707,-8.31088352203369,61.0791778564453,0.001674003549851,-0.648867845535278,-0.029192226007581,-0.001586913829669
2023,39.1687027574662,3.89657330513,-0.116027794778347,9.78969573974609,-0.000270604563411,0.000175995752215,-0.005301525816321,-8.22360134124756,61.0781440734863,0.001673240680248,-0.651905477046967,-0.029287848621607,-0.001739501953125
2024,39.1787027572427,0.599956631660461,0.006487061735243,9.8276252746582,-0.000195702334167,-0.000277864426607,-0.005282937083393,-8.13625812530518,61.0771064758301,0.0016742706066,-0.654932141304016,-0.029123924672604,-0.0018310546875
2025,39.1887027570192,3.88111782073975,-0.075822971761227,9.79161739349365,-0.000179746522917,0.000175125198439,-0.005414428189397,-8.04852867126465,61.076057434082,0.001673660241067,-0.65803450345993,-0.029226377606392,-0.001953124650754
2026,39.1987027567957,0.605405747890472,-0.033420149236918,9.82380867004395,-0.000110993532871,-0.000277197163086,-0.005293037742376,-7.96073818206787,61.075008392334,0.001674461294897,-0.661067485809326,-0.029069283977151,-0.002014159923419
2027,39.2087027565722,3.88111686706543,-0.075430497527123,9.79467010498047,-0.000106225452328,0.000173451306182,-0.005373082589358,-7.87256097793579,61.0739440917969,0.001673927297816,-0.664145946502685,-0.029164906591177,-0.002075194846839
2028,39.2187027563486,0.594468712806702,0.046505585312843,9.82534503936768,-4.50723491667304E-05,-0.000275523052551,-0.005177608691156,-7.78432416915894,61.072883605957,0.001674957224168,-0.667112350463867,-0.029007811099291,-0.002105712657794
2029,39.2287027561251,3.87111473083496,-0.075153172016144,9.79239082336426,-3.3835389331216E-05,0.000172411586391,-0.005127225536853,-7.69570112228394,61.0718116760254,0.001674423227087,-0.670049726963043,-0.029110264033079,-0.002105712657794
2030,39.2387027559016,0.604453206062317,0.046682164072991,9.82381153106689,1.10329938252107E-05,-0.000274869176792,-0.004896049853414,-7.60701847076416,61.0707397460938,0.001675300532952,-0.672855317592621,-0.028953170403838,-0.002105712424964
2031,39.2487027556781,3.85158705711365,-0.115011498332024,9.79316711425781,1.61964617291233E-05,0.00017138547264,-0.004796667024493,-7.51795101165772,61.0696563720703,0.00167469016742,-0.67560350894928,-0.029062453657389,-0.002105712424964
2032,39.2587027554546,0.609914243221283,0.006810580845922,9.82495307922363,5.47523704881314E-05,-0.000273937097518,-0.004545907489955,-7.42882299423218,61.0685729980469,0.001675605773926,-0.678208351135254,-0.028905358165503,-0.002044677268714
2033,39.2687027552311,3.83611392974854,-0.074836000800133,9.79546928405762,4.51446830993518E-05,0.00016991099983,-0.004453665111214,-7.3393120765686,61.0674781799316,0.001675262465142,-0.680759966373444,-0.029000980779529,-0.002044677268714
2034,39.2787027550075,0.614423215389252,0.0469302944839,9.81961154937744,7.7103431976866E-05,-0.000273466052022,-0.004190335050225,-7.24973964691162,61.0663871765137,0.001675910898484,-0.683160841464996,-0.028843887150288,-0.001983642345294
2035,39.288702754784,3.82563304901123,-0.034627873450518,9.79815101623535,7.37544251023792E-05,0.000168403799762,-0.004033954348415,-7.15978574752808,61.0652885437012,0.0016755675897,-0.685471951961517,-0.028939509764314,-0.001953124650754
2036,39.2987027545605,0.61988765001297,0.007056480739266,9.81998920440674,9.85037040663883E-05,-0.000271232944215,-0.003779315156862,-7.06977033615112,61.0641899108887,0.001676254207268,-0.687637388706207,-0.028775585815311,-0.001892089610919
2037,39.308702754337,3.80110597610474,-0.074622333049774,9.79587650299072,9.0124478447251E-05,0.000167558144312,-0.003617604263127,-6.97937536239624,61.0630760192871,0.001675720210187,-0.689710378646851,-0.028871208429337,-0.001831054454669
2038,39.3187027541135,0.629395484924316,0.047238044440746,9.82494640350342,0.000107890926301,-0.000270385004114,-0.00337424245663,-6.88891792297363,61.0619659423828,0.001676711952314,-0.691643357276917,-0.028714112937451,-0.001770019182004
2039,39.32870275389,3.78610014915466,-0.074532903730869,9.79283714294434,0.000100545621535,0.000165934397955,-0.003211433300748,-6.79808235168457,61.060848236084,0.001676177955233,-0.693483769893646,-0.028809735551477,-0.001708984142169
2040,39.3387027536664,0.647297561168671,-0.192526131868362,9.82416725158691,-0.000237508749706,-0.000269733689493,-0.005028599407524,-6.70718288421631,61.0597038269043,0.001677093445323,-0.69636470079422,-0.028659472241998,-0.001861571799964
2041,39.3487027534429,3.7530574798584,-0.234566748142242,9.79399681091309,-0.00052779953694,0.000164559547557,-0.007007583975792,-6.6159086227417,61.0585403442383,0.001676597516052,-0.700379967689514,-0.028748264536262,-0.002136230235919
2042,39.3587027532194,0.650345921516418,-0.032472603023052,9.82302570343018,-0.000333418836817,-0.000268710398814,-0.006667754147202,-6.52456998825073,61.0573654174805,0.001677436754107,-0.704199910163879,-0.028598001226783,-0.002349853049964
2043,39.3687027529959,3.76060676574707,-0.034019082784653,9.79362201690674,-0.000240695255343,0.000162716198247,-0.006585095543414,-6.43285608291626,61.0561866760254,0.001676826388575,-0.70797324180603,-0.028693623840809,-0.002471923362464
2044,39.3787027527724,0.644843876361847,0.007513514719903,9.82455921173096,-0.000116573413834,-0.000267734780209,-0.006236100569367,-6.34107828140259,61.0550079345703,0.001677703810856,-0.711546242237091,-0.028536528348923,-0.002532958751544
2045,39.3887027525489,3.74060225486755,-0.033823572099209,9.79401588439941,-6.24649474048056E-05,0.000162064432516,-0.006032215431333,-6.24892663955689,61.0538177490234,0.001677169813775,-0.715002179145813,-0.028632150962949,-0.002563476329669
2046,39.3987027523253,0.650335431098938,-0.032350949943066,9.82379055023193,1.31179576783325E-05,-0.000266274088062,-0.005673594307154,-6.15671062469482,61.0526237487793,0.00167804711964,-0.718252956867218,-0.028488717973232,-0.002563475864008
2047,39.4087027521018,3.73110198974609,-0.073525540530682,9.79402446746826,3.73360562662128E-05,0.000161495758221,-0.005449777003378,-6.06412220001221,61.0514259338379,0.001677513122559,-0.721375644207001,-0.028584340587258,-0.002532958984375
2048,39.4187027518783,0.659316301345825,0.047847636044026,9.82417106628418,8.53178353281692E-05,-0.000265489099547,-0.005104127340019,-5.97146844863892,61.0502243041992,0.001678428612649,-0.724300146102905,-0.028427245095372,-0.002502441173419
2049,39.4287027516548,3.71110057830811,-0.073390252888203,9.79403495788574,8.48292911541648E-05,0.000160187963047,-0.00491798389703,-5.8784441947937,61.0490112304688,0.001677932683378,-0.727117955684662,-0.028522867709398,-0.002441405784339
2050,39.4387027514313,0.658791184425354,0.087927520275116,9.82303142547607,0.000118735137221,-0.000263312540483,-0.004578918218613,-5.7853536605835,61.0478057861328,0.001678771921434,-0.729741454124451,-0.028365774080157,-0.002380370860919
2051,39.4487027512077,3.70160865783691,-0.113158024847507,9.79404258728027,0.000119493692182,0.000158900598763,-0.004343114793301,-5.69189453125,61.0465850830078,0.001678199740127,-0.732229828834534,-0.028461396694183,-0.002288817893714
2052,39.4587027509842,0.664798974990845,0.008079060353339,9.82417011260986,0.000140917079989,-0.000262536981609,-0.004029472824186,-5.59836912155151,61.0453643798828,0.001679077162407,-0.734538555145264,-0.028304303064942,-0.002227782970294
2053,39.4687027507607,3.68609261512756,-0.073038645088673,9.79405689239502,0.00013347811182,0.000157920760103,-0.003800517180935,-5.50447559356689,61.0441360473633,0.001678543048911,-0.736716270446777,-0.028393095359206,-0.002136230003089
2054,39.4787027505372,0.668755769729614,0.088216751813889,9.8237886428833,0.000141780663398,-0.000261794833932,-0.003544655861333,-5.41051578521729,61.0429077148438,0.001679420471191,-0.738747119903564,-0.028242830187082,-0.002044677035883
2055,39.4887027503137,3.66608881950378,-0.073018252849579,9.7940731048584,0.000135171532747,0.000156936555868,-0.003323802724481,-5.31618928909302,61.0416717529297,0.001678886357695,-0.740651667118073,-0.028331622481346,-0.001983642810956
2056,39.4987027500902,0.674776077270508,0.008356790058315,9.82454586029053,0.000145239057019,-0.00025997083867,-0.003061354393139,-5.2217960357666,61.0404396057129,0.001679840032011,-0.742405235767365,-0.028181359171867,-0.001892089610919
2057,39.5087027498666,3.66556286811829,-0.032778717577458,9.79369640350342,0.000134979345603,0.000155231988174,-0.002860663691536,-5.12703704833984,61.039192199707,0.00167934410274,-0.744044542312622,-0.028270151466131,-0.001831054221839
2058,39.5187027496431,0.675286948680878,-0.031576838344336,9.82263851165772,0.000141295371577,-0.000258867657976,-0.002626507775858,-5.03221130371094,61.0379486083984,0.001680145272985,-0.745549380779266,-0.028140377253294,-0.001739501603879
2059,39.5287027494196,3.64399266242981,0.08715070784092,9.79485988616943,0.00025891259429,0.000153845729074,-0.001703085261397,-4.93702125549316,61.0367012023926,0.001679611159489,-0.746525168418884,-0.028208680450916,-0.001586913829669
2060,39.5387027491961,0.679757058620453,0.008558260276914,9.82378196716309,0.000241005065618,-0.000257409410551,-0.00142822752241,-4.84176397323608,61.035457611084,0.001680488581769,-0.747343599796295,-0.028078906238079,-0.001434325939044
2061,39.5487027489726,3.63054871559143,-0.032893393188715,9.79486656188965,0.000220946327318,0.00015286411508,-0.001169291441329,-4.74614381790161,61.0342063903809,0.001680030836724,-0.74801367521286,-0.028154037892819,-0.001312255859375
2062,39.5587027487491,0.684220969676971,0.048676405102015,9.82149505615234,0.00020411220612,-0.000256304163486,-0.000953760463744,-4.65045595169067,61.032958984375,0.001680755522102,-0.748560130596161,-0.028010604903102,-0.00119018543046
2063,39.5687027485255,3.62002086639404,0.007071002852172,9.79792499542236,0.000182585237781,0.000152242180775,-0.000758462119848,-4.55440616607666,61.0317077636719,0.001680450397544,-0.748994529247284,-0.028106227517128,-0.001098632696085
2064,39.578702748302,0.6847323179245,0.008720462210476,9.82034873962402,0.000166266443557,-0.000255179416854,-0.000599567836616,-4.45828866958618,61.0304527282715,0.001681213383563,-0.749338448047638,-0.027949132025242,-0.001007080078125
2065,39.5887027480785,3.61000967025757,0.007009263616055,9.79526424407959,0.000151074244059,0.000149797284394,-0.000444126926595,-4.36181116104126,61.0291976928711,0.001680679270066,-0.749592542648315,-0.028044754639268,-0.00091552734375
2066,39.598702747855,0.690246224403381,-0.031179325655103,9.82339859008789,0.000135683832923,-0.000253707927186,-0.000328527123202,-4.26526403427124,61.0279388427734,0.001681518508121,-0.749780535697937,-0.027887661010027,-0.0008544921875
2067,39.6087027476315,3.59000086784363,0.006793070584536,9.79489803314209,0.000123882127809,0.000149114639498,-0.00021186817321,-4.16835927963257,61.0266723632813,0.00168102257885,-0.7499018907547,-0.027983283624053,-0.00076293933671
2068,39.618702747408,0.699709951877594,0.008976632729173,9.82301139831543,0.000111107081466,-0.000252217520028,-0.000127791587147,-4.0713849067688,61.0254096984863,0.001681861816905,-0.749975383281708,-0.02781935967505,-0.000701904471498
2069,39.6287027471844,3.57799744606018,-0.033352091908455,9.79491424560547,0.000102639234683,0.000148489954881,-4.05636164941825E-05,-3.97405314445496,61.0241394042969,0.001681365887634,-0.749975383281708,-0.02781935967505,-0.000701904471498
2070,39.6387027469609,0.696152567863464,0.088958159089089,9.8230152130127,9.02553292689845E-05,-0.000251029705396,1.49615898408229E-05,-3.87665224075317,61.0228729248047,0.00168220512569,-0.749989986419678,-0.02775788679719,-0.000579833984375
2071,39.6487027467374,3.56601142883301,-0.073490500450134,9.79492092132568,8.38881969684735E-05,0.000146064718137,7.61108167353086E-05,-3.77889513969421,61.021598815918,0.001681709196419,-0.749989986419678,-0.02775788679719,-0.000579833984375
2072,39.6587027465139,0.709164559841156,0.049134332686663,9.82301235198975,7.36945876269601E-05,-0.000249522767263,0.000113833491923,-3.68106770515442,61.0203247070313,0.001682548434474,-0.749881207942963,-0.027696415781975,-0.000518798828125
2073,39.6687027462904,3.54547929763794,-0.033752005547285,9.79531669616699,6.84734768583439E-05,0.000145450772834,0.000153354994836,-3.58288621902466,61.0190467834473,0.001682090689428,-0.749881207942963,-0.027696415781975,-0.000518798828125
2074,39.6787027460668,0.715203821659088,-0.030780028551817,9.82262516021729,6.23003870714456E-05,-0.000248658907367,0.000177634443389,-3.48463368415833,61.0177612304688,0.001682929927483,-0.749691724777222,-0.027655433863402,-0.000427246035542
2075,39.6887027458433,3.526939868927,0.046014200896025,9.79532623291016,5.6196833611466E-05,0.000144117962918,0.000202518014703,-3.38602900505066,61.0164794921875,0.001682472182438,-0.749575734138489,-0.027730567380786,-0.000396728544729
2076,39.6987027456198,0.722692310810089,-0.030674392357469,9.82224273681641,4.98359004268423E-05,-0.000247092044447,0.000210320198676,-3.28735256195068,61.0151901245117,0.001683273236267,-0.749455213546753,-0.027593962848187,-0.000366210966604
2077,39.7087027453963,3.51245307922363,0.005816454999149,9.79609870910645,4.70077902718913E-05,0.000142782693729,0.000227953365538,-3.18832516670227,61.0139007568359,0.001682853675447,-0.749324858188629,-0.027662264183164,-0.000335693359375
2078,39.7187027451728,0.728311657905579,0.689529359340668,9.82147216796875,0.00118967355229,-0.0002466943115,0.006908056791872,-3.08922481536865,61.0126762390137,0.001683616545051,-0.745366632938385,-0.027532491832972,0.000338129117154
2079,39.7287027449493,3.49485945701599,0.205299869179726,9.79648780822754,0.001130444929004,0.0001410242985,0.008244971744716,-2.98977494239807,61.0114669799805,0.001683196984231,-0.740642607212067,-0.027600793167949,0.000983554404229
2080,39.7387027447257,0.728622555732727,0.089562989771366,9.82185649871826,0.000966752471868,-0.00024585556821,0.008981928229332,-2.89025259017944,61.0102653503418,0.001683998038061,-0.73549622297287,-0.027471018955112,0.001534988754429
2081,39.7487027445022,3.48340916633606,0.12466786056757,9.79420852661133,0.000901408900972,0.000138859584695,0.009967062622309,-2.79038238525391,61.0090751647949,0.001683387672529,-0.729785799980164,-0.027552980929613,0.00204871641472
2082,39.7587027442787,0.738125026226044,0.129698768258095,9.82413959503174,0.000726501923054,-0.000244726397796,0.010256350040436,-2.69043874740601,61.0078926086426,0.001684226910584,-0.723908960819244,-0.027409547939897,0.002462153555825
2083,39.7687027440552,3.47142815589905,0.083917908370495,9.79726696014404,0.000642467930447,0.000137644456117,0.010720471851528,-2.59014821052551,61.0067176818848,0.001683959970251,-0.717766582965851,-0.027491509914398,0.002827316522598
2084,39.7787027438317,0.739133536815643,0.049657333642244,9.81956577301025,0.000486099073896,-0.000242970330874,0.010716035030782,-2.48978424072266,61.0055465698242,0.001684684772044,-0.711626887321472,-0.027348075062037,0.003102893475443
2085,39.7887027436082,3.45844435691833,0.123099781572819,9.79574775695801,0.000421988312155,0.000136984017445,0.010891440324485,-2.38907480239868,61.0043830871582,0.001684150658548,-0.705386400222778,-0.027436869218946,0.003341690870002
