frame,timestamp,acc x (m/s^2),acc y (m/s^2),acc z (m/s^2),gyro x (rad/s),gyro y (rad/s),gyro z (rad/s),x (Ground truth),y (Ground truth),z (Ground truth),yaw (Ground Truth),pitch (Ground Truth),roll (Ground Truth)
4741,117.3841967387707,0.0,-0.0,0.010000228881835938,-0.0,-0.0,-0.0,-23.800546646118164,61.24238586425781,0.09412002563476562,-0.5967352390289307,-0.0,0.0
4742,117.39419673854718,0.0,-0.0,0.01007843017578125,-0.0,-0.0,-0.0,-23.800546646118164,61.24238586425781,0.0902000442147255,-0.5967352390289307,-0.0,0.0
4743,117.40419673832366,0.0,-0.0,0.009688377380371094,-0.0,-0.0,-0.0,-23.800546646118164,61.24238586425781,0.0853000208735466,-0.5967352390289307,-0.0,0.0
4744,117.41419673810015,0.0,-0.0,0.01007843017578125,-0.0,-0.0,-0.0,-23.800546646118164,61.24238586425781,0.07942001521587372,-0.5967352390289307,-0.0,0.0
4745,117.42419673787663,0.0,-0.0,3.618281841278076,7.764093425066676e-06,3.1802646844880655e-06,3.052793478078297e-14,-23.800546646118164,61.24238586425781,0.07292083650827408,-0.5967352390289307,-0.0,0.0
4746,117.43419673765311,0.0,-0.0,15.623672485351562,3.7483478081412613e-06,2.2674150841339724e-06,1.2305662044909127e-10,-23.800546646118164,61.24238586425781,0.06700301915407181,-0.5967352390289307,-0.0,0.0
4747,117.44419673742959,0.0,-0.0,14.684375762939453,2.439925310682156e-06,1.6787168988230405e-06,-1.0622225321554879e-10,-23.800546646118164,61.24238586425781,0.06157264485955238,-0.5967352390289307,-0.0,0.0
4748,117.45419673720608,0.0,-0.0,14.286523818969727,2.609408966236515e-06,1.7602388879822684e-06,-1.2580575470266808e-11,-23.800546646118164,61.24238586425781,0.05658992752432823,-0.5967352390289307,-0.0,0.0
4749,117.46419673698256,0.0,-0.0,13.921133041381836,2.7156618216395145e-06,1.1194910030098981e-06,-7.372980004305418e-11,-23.800546646118164,61.24238586425781,0.05201831832528114,-0.5967352390289307,-0.0,0.0
4750,117.47419673675904,0.0,-0.0,13.585039138793945,2.1767066300526494e-06,1.5096852621354628e-06,-1.133676486020363e-12,-23.800546646118164,61.24238586425781,0.04782421141862869,-0.5967352390289307,-0.0,0.0
4751,117.48419673653552,0.0,-0.0,13.276406288146973,7.206526220215892e-07,8.39585197809356e-07,-1.248986469803981e-10,-23.800546646118164,61.24238586425781,0.04397674277424812,-0.5967352390289307,-0.0,0.0
4752,117.494196736312,0.0,-0.0,12.992578506469727,7.640011858711659e-07,1.442740824586508e-07,-1.120500914275624e-11,-23.800546646118164,61.24238586425781,0.04044754058122635,-0.5967352390289307,-0.0,0.0
4753,117.50419673608849,0.0,-0.0,12.731719017028809,1.5151132402024814e-06,5.051587663729151e-07,-3.6573744033319144e-11,-23.800546646118164,61.24238586425781,0.03721050173044205,-0.5967352390289307,-0.0,0.0
4754,117.51419673586497,0.0,-0.0,12.492071151733398,1.5397897641378222e-06,5.098428346173023e-07,1.719631381735809e-11,-23.800546646118164,61.24238586425781,0.034241676330566406,-0.5967352390289307,-0.0,0.0
4755,117.52419673564145,0.0,-0.0,12.272031784057617,9.341625855086022e-07,1.627390133762674e-07,-1.1637707464373648e-10,-23.800546646118164,61.24238586425781,0.031519051641225815,-0.5967352390289307,-0.0,0.0
4756,117.53419673541794,0.0,-0.0,12.069063186645508,2.96973912128351e-08,5.132670253260585e-07,3.8845510141882755e-11,-23.800546646118164,61.24238586425781,0.029022330418229103,-0.5967352390289307,-0.0,0.0
4757,117.54419673519442,0.0,-0.0,11.883652687072754,4.4065725290920454e-08,-1.8750408514733863e-07,-9.503517417464025e-11,-23.800546646118164,61.24238586425781,0.026732977479696274,-0.5967352390289307,-0.0,0.0
4758,117.5541967349709,0.0,-0.0,11.712793350219727,2.661942488657587e-08,-2.063637651872341e-07,-2.085798200823774e-11,-23.800546646118164,61.24238586425781,0.024633903056383133,-0.5967352390289307,-0.0,0.0
4759,117.56419673474738,0.0,-0.0,11.555976867675781,-1.284427497694196e-08,4.907338393422833e-07,1.0381204229581442e-10,-23.800546646118164,61.24238586425781,0.022709425538778305,-0.5967352390289307,-0.0,0.0
4760,117.57419673452387,0.0,-0.0,11.41177749633789,8.689244168635923e-07,1.3181329450162593e-07,-4.6278411658384755e-11,-23.800546646118164,61.24238586425781,0.020945128053426743,-0.5967352390289307,-0.0,0.0
4761,117.58419673430035,0.0,-0.0,11.279824256896973,-5.086518939378948e-08,4.635485026938113e-07,5.956957149777509e-12,-23.800546646118164,61.24238586425781,0.019327811896800995,-0.5967352390289307,-0.0,0.0
4762,117.59419673407683,0.0,-0.0,11.158105850219727,-7.302086828531174e-07,9.872711359548703e-08,-8.63782378957012e-11,-23.800546646118164,61.24238586425781,0.017845306545495987,-0.5967352390289307,-0.0,0.0
4763,117.60419673385331,0.0,-0.0,11.046719551086426,-7.823010719221202e-07,7.71320074477444e-08,5.739980712959891e-11,-23.800546646118164,61.24238586425781,0.016486473381519318,-0.5967352390289307,-0.0,0.0
4764,117.6141967336298,0.0,-0.0,10.944501876831055,5.400851819103991e-07,6.188166423726216e-08,-1.4306555939924692e-11,-23.800546646118164,61.24238586425781,0.015241088345646858,-0.5967352390289307,-0.0,0.0
4765,117.62419673340628,0.0,-0.0,10.850263595581055,7.514868798352836e-07,-6.676468728983309e-07,-8.758452296753205e-11,-23.800546646118164,61.24238586425781,0.014099731110036373,-0.5967352390289307,-0.0,0.0
4766,117.63419673318276,0.0,-0.0,10.764433860778809,-1.4852145113763981e-07,3.6056295016351214e-07,5.739447805908071e-11,-23.800546646118164,61.24238586425781,0.013053817674517632,-0.5967352390289307,-0.0,0.0
4767,117.64419673295924,0.0,-0.0,10.684717178344727,7.097777370290714e-07,1.2333323251567663e-09,1.890160250539452e-11,-23.800546646118164,61.24238586425781,0.01209537498652935,-0.5967352390289307,-0.0,0.0
4768,117.65419673273573,0.0,-0.0,10.612607955932617,-1.9379618265702447e-07,3.291761174750718e-07,7.475478569496374e-12,-23.800546646118164,61.24238586425781,0.011217193678021431,-0.5967352390289307,-0.0,0.0
4769,117.66419673251221,0.0,-0.0,10.545478820800781,-8.981349424175278e-07,-7.40166399282316e-07,-4.521816254765554e-11,-23.800546646118164,61.24238586425781,0.010412558913230896,-0.5967352390289307,-0.0,0.0
4770,117.67419673228869,0.0,-0.0,10.484434127807617,6.55069925414864e-07,-5.8070035890978033e-08,4.4403439258822175e-11,-23.800546646118164,61.24238586425781,0.009675368666648865,-0.5967352390289307,-0.0,0.0
4771,117.68419673206517,0.0,-0.0,10.428369522094727,-2.5551761950737273e-07,3.005783923981653e-07,1.7881252034612771e-12,-23.800546646118164,61.24238586425781,0.009000015445053577,-0.5967352390289307,-0.0,0.0
4772,117.69419673184166,0.0,-0.0,10.376855850219727,-2.9768784770567436e-07,-4.000862077191414e-07,-1.3769152484854885e-11,-23.800546646118164,61.24238586425781,0.008381347171962261,-0.5967352390289307,-0.0,0.0
4773,117.70419673161814,0.0,-0.0,10.329946517944336,-3.065360658638383e-07,2.7900779286937905e-07,4.345132587069145e-11,-23.800546646118164,61.24238586425781,0.007814674638211727,-0.5967352390289307,-0.0,0.0
4774,117.71419673139462,0.0,-0.0,10.2860746383667,-3.5071511206297146e-07,-4.451780739600508e-07,-1.488331680121746e-11,-23.800546646118164,61.24238586425781,0.0072956085205078125,-0.5967352390289307,-0.0,0.0
4775,117.7241967311711,0.0,-0.0,10.2464017868042,5.232237754171365e-07,-9.777975407132544e-08,6.610481606550422e-11,-23.800546646118164,61.24238586425781,0.006820182781666517,-0.5967352390289307,-0.0,0.0
4776,117.73419673094759,0.0,-0.0,10.210165977478027,-3.8245889300014824e-07,2.5234709255528287e-07,4.4157691392321397e-11,-23.800546646118164,61.24238586425781,0.006384773179888725,-0.5967352390289307,-0.0,0.0
4777,117.74419673072407,0.0,-0.0,10.176587104797363,-3.9053091427376785e-07,-4.5639814061360084e-07,-3.432598649766305e-11,-23.800546646118164,61.24238586425781,0.005986022762954235,-0.5967352390289307,-0.0,0.0
4778,117.75419673050055,0.0,-0.0,10.1456937789917,-3.8456875017800485e-07,2.419708380330121e-07,3.120165237291417e-11,-23.800546646118164,61.24238586425781,0.00562084186822176,-0.5967352390289307,-0.0,0.0
4779,117.76419673027704,0.0,-0.0,10.118232727050781,4.6794258423688007e-07,-1.1739359706552932e-07,4.786748775131855e-11,-23.800546646118164,61.24238586425781,0.005286483559757471,-0.5967352390289307,-0.0,0.0
4780,117.77419673005352,0.0,-0.0,10.091904640197754,4.850401751355093e-07,-1.1839097879828842e-07,1.427915945206859e-12,-23.800546646118164,61.24238586425781,0.004980315919965506,-0.5967352390289307,-0.0,0.0
4781,117.78419672983,0.0,-0.0,10.068252563476562,-4.001828983746236e-07,2.3261230808202527e-07,-1.3946455101887523e-11,-23.800546646118164,61.24238586425781,0.004699973855167627,-0.5967352390289307,-0.0,0.0
4782,117.79419672960648,0.0,-0.0,10.046895027160645,4.718627053534874e-07,-1.1880390360374804e-07,-1.2869705301454815e-12,-23.800546646118164,61.24238586425781,0.004443320911377668,-0.5967352390289307,-0.0,0.0
4783,117.80419672938297,0.0,-0.0,10.0266752243042,-4.240089879203879e-07,2.3313296537708084e-07,4.047980700638831e-11,-23.800546646118164,61.24238586425781,0.004208335652947426,-0.5967352390289307,-0.0,0.0
4784,117.81419672915945,0.0,-0.0,10.008745193481445,-4.3267934302093636e-07,2.3035335061649675e-07,2.0913840104164194e-11,-23.800546646118164,61.24238586425781,0.003993224818259478,-0.5967352390289307,-0.0,0.0
4785,117.82419672893593,0.0,-0.0,9.991963386535645,4.471645240755606e-07,-1.3524832809252985e-07,3.224054356820716e-11,-23.800546646118164,61.24238586425781,0.0037963103968650103,-0.5967352390289307,-0.0,0.0
4786,117.83419672871241,0.0,-0.0,9.976699829101562,1.3729361398873152e-06,-4.948279297423142e-07,-3.448011667850359e-11,-23.800546646118164,61.24238586425781,0.003616065951064229,-0.5967352390289307,-0.0,0.0
4787,117.8441967284889,0.0,-0.0,9.962591171264648,-3.934179915177083e-07,2.033625889907853e-07,-8.087974734394265e-14,-23.800546646118164,61.24238586425781,0.0034510802943259478,-0.5967352390289307,-0.0,0.0
4788,117.85419672826538,0.0,-0.0,9.950000762939453,-4.0721374716667924e-07,2.0158056202035368e-07,-2.01899885698964e-11,-23.800546646118164,61.24238586425781,0.00330009451135993,-0.5967352390289307,-0.0,0.0
4789,117.86419672804186,0.0,-0.0,9.937790870666504,-4.3979085262435547e-07,1.9836156184283027e-07,-3.9052303058007e-12,-23.800546646118164,61.24238586425781,0.0031618881039321423,-0.5967352390289307,-0.0,0.0
4790,117.87419672781834,0.0,-0.0,9.92749309539795,-4.729974705242057e-07,2.0172879544588795e-07,-7.386855016555671e-12,-23.800546646118164,61.24238586425781,0.003035430796444416,-0.5967352390289307,-0.0,0.0
4791,117.88419672759483,0.0,-0.0,9.917192459106445,1.282614107367408e-06,-5.171975203666079e-07,-2.3988533381924526e-11,-23.800546646118164,61.24238586425781,0.002919693011790514,-0.5967352390289307,-0.0,0.0
4792,117.89419672737131,0.0,-0.0,9.90842056274414,4.0456367855767894e-07,-1.7662785012362292e-07,-2.03839167767228e-11,-23.800546646118164,61.24238586425781,0.002813796978443861,-0.5967352390289307,-0.0,0.0
4793,117.90419672714779,0.0,-0.0,9.899646759033203,-4.960713226864755e-07,1.6737125463350822e-07,2.0616841567289157e-13,-23.800546646118164,61.24238586425781,0.0027168653905391693,-0.5967352390289307,-0.0,0.0
4794,117.91419672692427,0.0,-0.0,9.8923978805542,3.7384413076324563e-07,-1.9109870663669426e-07,-4.1648677562289294e-11,-23.800546646118164,61.24238586425781,0.002628173679113388,-0.5967352390289307,-0.0,0.0
4795,117.92419672670076,0.0,-0.0,9.885530471801758,-5.434366130430135e-07,1.472182304951275e-07,5.128050761804559e-11,-23.800546646118164,61.24238586425781,0.002547035226598382,-0.5967352390289307,-0.0,0.0
4796,117.93419672647724,0.0,-0.0,9.879048347473145,3.474306140560657e-07,-1.9998869049686618e-07,-5.194825125620639e-11,-23.800546646118164,61.24238586425781,0.0024728011339902878,-0.5967352390289307,-0.0,0.0
4797,117.94419672625372,0.0,-0.0,9.873323440551758,-5.593064429376682e-07,1.5668473452024045e-07,4.8327175594664595e-12,-23.800546646118164,61.24238586425781,0.0024048995692282915,-0.5967352390289307,-0.0,0.0
4798,117.9541967260302,0.0,-0.0,9.8679838180542,2.9576409588116803e-07,-1.928091393210707e-07,1.108854674747306e-11,-23.800546646118164,61.24238586425781,0.0023427961859852076,-0.5967352390289307,-0.0,0.0
4799,117.96419672580669,0.0,-0.0,9.862642288208008,-6.016594511493167e-07,1.6525974899650464e-07,1.0807743588969743e-12,-23.800546646118164,61.24238586425781,0.0022859573364257812,-0.5967352390289307,-0.0,0.0
4800,117.97419672558317,0.0,-0.0,9.858448028564453,2.5720822804942145e-07,-1.889577561087208e-07,4.766770311803725e-12,-23.800546646118164,61.24238586425781,0.002233962994068861,-0.5967352390289307,-0.0,0.0
4801,117.98419672535965,0.0,-0.0,9.854634284973145,2.523643445329071e-07,-1.913286240551315e-07,1.2634525370369687e-11,-23.800546646118164,61.24238586425781,0.002186431782320142,-0.5967352390289307,-0.0,0.0
4802,117.99419672513613,0.0,-0.0,9.850435256958008,2.49479995773072e-07,-2.002768155762169e-07,6.4382804643159375e-12,-23.800546646118164,61.24238586425781,0.002142944373190403,-0.5967352390289307,-0.0,0.0
4803,118.00419672491262,0.0,-0.0,9.847002029418945,2.6920079676528985e-07,-2.003118595439446e-07,-4.454653312890855e-11,-23.800546646118164,61.24238586425781,0.0021031571086496115,-0.5967352390289307,-0.0,0.0
4804,118.0141967246891,0.0,-0.0,9.84433364868164,-6.261927296691283e-07,1.488257055370923e-07,-6.499106808277588e-12,-23.800546646118164,61.24238586425781,0.0020668029319494963,-0.5967352390289307,-0.0,0.0
4805,118.02419672446558,0.0,-0.0,9.840898513793945,-6.363745796988951e-07,1.5076530246460607e-07,-1.934635784905936e-11,-23.800546646118164,61.24238586425781,0.0020335388835519552,-0.5967352390289307,-0.0,0.0
4806,118.03419672424207,0.0,-0.0,9.838229179382324,-6.6476530946602e-07,1.4846564511117322e-07,3.169273177228149e-11,-23.800546646118164,61.24238586425781,0.00200309744104743,-0.5967352390289307,-0.0,0.0
4807,118.04419672401855,0.0,-0.0,9.836320877075195,2.1708616770865774e-07,-2.020480707187744e-07,-1.6557033521991116e-12,-23.800546646118164,61.24238586425781,0.0019752883818000555,-0.5967352390289307,-0.0,0.0
4808,118.05419672379503,0.0,-0.0,9.83365249633789,8.766423889028374e-07,1.453906861570431e-07,4.001594888780602e-11,-23.800546646118164,61.24238586425781,0.0019498442998155951,-0.5967352390289307,-0.0,0.0
4809,118.06419672357151,0.0,-0.0,9.831743240356445,2.3119019942896557e-07,-2.0301779102283035e-07,-7.992506656506748e-11,-23.800546646118164,61.24238586425781,0.0019265746232122183,-0.5967352390289307,-0.0,0.0
4810,118.074196723348,0.0,-0.0,9.82983684539795,-6.741089464412653e-07,1.4564034245267976e-07,-1.6281975767640233e-12,-23.800546646118164,61.24238586425781,0.0019052886636927724,-0.5967352390289307,-0.0,0.0
4811,118.08419672312448,0.0,-0.0,9.8283109664917,-7.006702276157739e-07,1.476109332543274e-07,3.2271352257140506e-11,-23.800546646118164,61.24238586425781,0.0018858336843550205,-0.5967352390289307,-0.0,0.0
4812,118.09419672290096,0.0,-0.0,9.82678508758545,-7.172804998845095e-07,1.4481835819424305e-07,2.6344260106725415e-11,-23.800546646118164,61.24238586425781,0.0018680571811273694,-0.5967352390289307,-0.0,0.0
4813,118.10419672267744,0.0,-0.0,9.987765312194824,-0.0,-0.0,-0.0,-23.800546646118164,61.24238586425781,0.0018680571811273694,-0.5967352390289307,-0.0,0.0
4814,118.11419672245393,0.0,-0.0,9.8100004196167,-0.0,-0.0,-0.0,-23.800546646118164,61.24238586425781,0.0018680571811273694,-0.5967352390289307,-0.0,0.0
4815,118.12419672223041,0.0,-0.0,9.8100004196167,-0.0,-0.0,-0.0,-23.800546646118164,61.24238586425781,0.0018680571811273694,-0.5967352390289307,-0.0,0.0
4816,118.13419672200689,0.0,-0.0,9.8100004196167,-0.0,-0.0,-0.0,-23.800546646118164,61.24238586425781,0.0018680571811273694,-0.5967352390289307,-0.0,0.0
4817,118.14419672178337,0.0,-0.0,9.8100004196167,-0.0,-0.0,-0.0,-23.800546646118164,61.24238586425781,0.0018680571811273694,-0.5967352390289307,-0.0,0.0
4818,118.15419672155986,0.0,-0.0,9.8100004196167,-0.0,-0.0,-0.0,-23.800546646118164,61.24238586425781,0.0018680571811273694,-0.5967352390289307,-0.0,0.0
4819,118.16419672133634,0.0,-0.0,9.8100004196167,-0.0,-0.0,-0.0,-23.800546646118164,61.24238586425781,0.0018680571811273694,-0.5967352390289307,-0.0,0.0
4820,118.17419672111282,0.0,-0.0,9.8100004196167,-0.0,-0.0,-0.0,-23.800546646118164,61.24238586425781,0.0018680571811273694,-0.5967352390289307,-0.0,0.0
4821,118.1841967208893,0.0,-0.0,9.8100004196167,-0.0,-0.0,-0.0,-23.800546646118164,61.24238586425781,0.0018680571811273694,-0.5967352390289307,-0.0,0.0
4822,118.19419672066579,0.0,-0.0,9.8100004196167,-0.0,-0.0,-0.0,-23.800546646118164,61.24238586425781,0.0018680571811273694,-0.5967352390289307,-0.0,0.0
4823,118.20419672044227,0.0,-0.0,9.8100004196167,-0.0,-0.0,-0.0,-23.800546646118164,61.24238586425781,0.0018680571811273694,-0.5967352390289307,-0.0,0.0
4824,118.21419672021875,0.0,-0.0,9.8100004196167,-0.0,-0.0,-0.0,-23.800546646118164,61.24238586425781,0.0018680571811273694,-0.5967352390289307,-0.0,0.0
4825,118.22419671999523,0.0,-0.0,9.8100004196167,-0.0,-0.0,-0.0,-23.800546646118164,61.24238586425781,0.0018680571811273694,-0.5967352390289307,-0.0,0.0
4826,118.23419671977172,0.0,-0.0,9.8100004196167,-0.0,-0.0,-0.0,-23.800546646118164,61.24238586425781,0.0018680571811273694,-0.5967352390289307,-0.0,0.0
4827,118.2441967195482,0.0,-0.0,9.8100004196167,-0.0,-0.0,-0.0,-23.800546646118164,61.24238586425781,0.0018680571811273694,-0.5967352390289307,-0.0,0.0
4828,118.25419671932468,0.0,-0.0,9.8100004196167,-0.0,-0.0,-0.0,-23.800546646118164,61.24238586425781,0.0018680571811273694,-0.5967352390289307,-0.0,0.0
4829,118.26419671910116,0.0,-0.0,9.8100004196167,-0.0,-0.0,-0.0,-23.800546646118164,61.24238586425781,0.0018680571811273694,-0.5967352390289307,-0.0,0.0
4830,118.27419671887765,0.0,-0.0,9.8100004196167,-0.0,-0.0,-0.0,-23.800546646118164,61.24238586425781,0.0018680571811273694,-0.5967352390289307,-0.0,0.0
4831,118.28419671865413,0.0,-0.0,9.8100004196167,-0.0,-0.0,-0.0,-23.800546646118164,61.24238586425781,0.0018680571811273694,-0.5967352390289307,-0.0,0.0
4832,118.29419671843061,0.0,-0.0,9.8100004196167,-0.0,-0.0,-0.0,-23.800546646118164,61.24238586425781,0.0018680571811273694,-0.5967352390289307,-0.0,0.0
4833,118.3041967182071,0.0,-0.0,9.8100004196167,-0.0,-0.0,-0.0,-23.800546646118164,61.24238586425781,0.0018680571811273694,-0.5967352390289307,-0.0,0.0
4834,118.31419671798358,0.0,-0.0,9.8100004196167,-0.0,-0.0,-0.0,-23.800546646118164,61.24238586425781,0.0018680571811273694,-0.5967352390289307,-0.0,0.0
4835,118.32419671776006,0.0,-0.0,9.8100004196167,-0.0,-0.0,-0.0,-23.800546646118164,61.24238586425781,0.0018680571811273694,-0.5967352390289307,-0.0,0.0
4836,118.33419671753654,0.0,-0.0,9.8100004196167,-0.0,-0.0,-0.0,-23.800546646118164,61.24238586425781,0.0018680571811273694,-0.5967352390289307,-0.0,0.0
4837,118.34419671731303,0.0,-0.0,9.8100004196167,-0.0,-0.0,-0.0,-23.800546646118164,61.24238586425781,0.0018680571811273694,-0.5967352390289307,-0.0,0.0
4838,118.35419671708951,0.0,-0.0,9.8100004196167,-0.0,-0.0,-0.0,-23.800546646118164,61.24238586425781,0.0018680571811273694,-0.5967352390289307,-0.0,0.0
4839,118.36419671686599,0.0,-0.0,9.8100004196167,-0.0,-0.0,-0.0,-23.800546646118164,61.24238586425781,0.0018680571811273694,-0.5967352390289307,-0.0,0.0
4840,118.37419671664247,0.0,-0.0,9.8100004196167,-0.0,-0.0,-0.0,-23.800546646118164,61.24238586425781,0.0018680571811273694,-0.5967352390289307,-0.0,0.0
4841,118.38419671641896,0.0,-0.0,9.8100004196167,-0.0,-0.0,-0.0,-23.800546646118164,61.24238586425781,0.0018680571811273694,-0.5967352390289307,-0.0,0.0
4842,118.39419671619544,0.0,-0.0,9.187824249267578,8.296945566144132e-07,-3.476048675565835e-07,9.90720838700554e-11,-23.800546646118164,61.24238586425781,0.0018058394780382514,-0.5967352390289307,-0.0,0.0
4843,118.40419671597192,0.0,-0.0,9.905366897583008,8.514904266121448e-07,-3.528504066707683e-07,-8.771872117563362e-13,-23.800546646118164,61.24238586425781,0.001753158518113196,-0.5967352390289307,-0.0,0.0
4844,118.4141967157484,0.0,-0.0,9.89392375946045,1.79934886546107e-07,3.773959811326222e-09,7.44012906839231e-11,-23.800546646118164,61.24238586425781,0.0017088699387386441,-0.5967352390289307,-0.0,0.0
4845,118.42419671552489,0.0,-0.0,9.88286304473877,8.537203370906354e-07,3.5407720133662224e-07,3.645241053451542e-11,-23.800546646118164,61.24238586425781,0.001671867328695953,-0.5967352390289307,-0.0,0.0
4846,118.43419671530137,0.0,-0.0,9.872941017150879,-3.791717517742654e-08,1.0460401433931565e-08,-2.078753141843137e-11,-23.800546646118164,61.24238586425781,0.0016411590622738004,-0.5967352390289307,-0.0,0.0
4847,118.44419671507785,0.0,-0.0,9.865314483642578,8.402955700148595e-07,-3.381899489340867e-07,1.0340062139846395e-12,-23.800546646118164,61.24238586425781,0.001615982037037611,-0.5967352390289307,-0.0,0.0
4848,118.45419671485433,0.0,-0.0,9.857685089111328,-4.931014174758275e-08,1.656401238392391e-08,-3.3623104300772866e-13,-23.800546646118164,61.24238586425781,0.001595573383383453,-0.5967352390289307,-0.0,0.0
4849,118.46419671463082,0.0,-0.0,9.851198196411133,-7.608613117326968e-08,2.6074500780737253e-08,4.537530073900342e-12,-23.800546646118164,61.24238586425781,0.00157928466796875,-0.5967352390289307,-0.0,0.0
4850,118.4741967144073,0.0,-0.0,9.84585952758789,-1.0081276258233629e-07,3.27251541420992e-08,5.8108969025472135e-12,-23.800546646118164,61.24238586425781,0.0015665816608816385,-0.5967352390289307,-0.0,0.0
4851,118.48419671418378,0.0,-0.0,9.840517044067383,-1.2534576399048092e-07,4.1731826883051326e-08,6.0766391918321006e-12,-23.800546646118164,61.24238586425781,0.0015569304814562201,-0.5967352390289307,-0.0,0.0
4852,118.49419671396026,0.0,-0.0,9.83594036102295,7.653901690218845e-08,4.8337600588865826e-08,7.33581251299853e-12,-23.800546646118164,61.24238586425781,0.0015498732682317495,-0.5967352390289307,-0.0,0.0
4853,118.50419671373675,0.0,-0.0,9.83212661743164,-1.7640508076510741e-07,5.7393251040593896e-08,-9.602076078696342e-12,-23.800546646118164,61.24238586425781,0.0015450286446139216,-0.5967352390289307,-0.0,0.0
4854,118.51419671351323,0.0,-0.0,9.828691482543945,-2.131828722440332e-07,6.123722329220982e-08,4.1954190121984425e-11,-23.800546646118164,61.24238586425781,0.001542053185403347,-0.5967352390289307,-0.0,0.0
4855,118.52419671328971,0.0,-0.0,9.826022148132324,-2.2686276679451112e-07,7.069736795983772e-08,5.5271009991031406e-11,-23.800546646118164,61.24238586425781,0.0015406799502670765,-0.5967352390289307,-0.0,0.0
4856,118.5341967130662,0.0,-0.0,9.82373332977295,-2.799117382323857e-08,7.400689838732433e-08,3.004690246610764e-12,-23.800546646118164,61.24238586425781,0.0015406799502670765,-0.5967352390289307,-0.0,0.0
4857,118.54419671284268,0.0,-0.0,9.820301055908203,6.261665248530335e-07,-2.6986225520886364e-07,-4.22714988013162e-11,-23.800546646118164,61.24238586425781,0.0015417098766192794,-0.5967352390289307,-0.0,0.0
4858,118.55419671261916,0.0,-0.0,9.819536209106445,-2.9025326853115985e-07,8.682795282766165e-08,1.1155340540192071e-11,-23.800546646118164,61.24238586425781,0.0015436934772878885,-0.5967352390289307,-0.0,0.0
4859,118.56419671239564,0.0,-0.0,9.81724739074707,5.75246872358548e-07,-2.56556432987054e-07,-3.432159417782188e-11,-23.800546646118164,61.24238586425781,0.001546401996165514,-0.5967352390289307,-0.0,0.0
4860,118.57419671217212,0.0,-0.0,9.8161039352417,-1.1710329061997982e-07,9.726509375695969e-08,2.419795613883835e-11,-23.800546646118164,61.24238586425781,0.0015497207641601562,-0.5967352390289307,-0.0,0.0
4861,118.58419671194861,0.0,-0.0,9.814579010009766,-1.4219065747056447e-07,1.0535795524901914e-07,-3.057635741821052e-12,-23.800546646118164,61.24238586425781,0.001553497277200222,-0.5967352390289307,-0.0,0.0
4862,118.59419671172509,0.0,-0.0,9.813432693481445,-3.898394140833261e-07,1.1440467062584503e-07,-1.3058013004219049e-11,-23.800546646118164,61.24238586425781,0.0015576170990243554,-0.5967352390289307,-0.0,0.0
4863,118.60419671150157,0.0,-0.0,9.812671661376953,-4.229106309594499e-07,1.1635525254405366e-07,3.992198238655931e-11,-23.800546646118164,61.24238586425781,0.0015620040940120816,-0.5967352390289307,-0.0,0.0
4864,118.61419671127805,0.0,-0.0,9.811906814575195,-4.2799990751518635e-07,1.2391450354698463e-07,-1.430383589351436e-11,-23.800546646118164,61.24238586425781,0.0015665816608816385,-0.5967352390289307,-0.0,0.0
4865,118.62419671105454,0.0,-0.0,9.81114387512207,4.228631098612823e-07,-2.2560028867246729e-07,1.5061674130123492e-11,-23.800546646118164,61.24238586425781,0.0015712737804278731,-0.5967352390289307,-0.0,0.0
4866,118.63419671083102,0.0,-0.0,9.810382843017578,-4.8545729214311e-07,1.230619375292008e-07,4.703284983698097e-11,-23.800546646118164,61.24238586425781,0.0015760039677843451,-0.5967352390289307,-0.0,0.0
4867,118.6441967106075,0.0,-0.0,9.810382843017578,-4.958397425980365e-07,1.2500065338372224e-07,2.6882968073849156e-11,-23.800546646118164,61.24238586425781,0.0015807723393663764,-0.5967352390289307,-0.0,0.0
4868,118.65419671038399,0.0,-0.0,9.80961799621582,-5.137179073244624e-07,1.2692690631865844e-07,3.119624003566912e-11,-23.800546646118164,61.24238586425781,0.0015855026431381702,-0.5967352390289307,-0.0,0.0
4869,118.66419671016047,0.0,-0.0,9.80961799621582,-5.302572390064597e-07,1.2366261614715768e-07,2.6121715901439302e-11,-23.800546646118164,61.24238586425781,0.001590194646269083,-0.5967352390289307,-0.0,0.0
4870,118.67419670993695,0.0,-0.0,9.808856964111328,1.2453029967218754e-06,-5.806929834761831e-07,-3.0688424024205574e-11,-23.800546646118164,61.24238586425781,0.0015947723295539618,-0.5967352390289307,-0.0,0.0
4871,118.68419670971343,0.0,-0.0,9.808856964111328,-5.363744435271656e-07,1.1939026478557935e-07,1.3307799306971901e-11,-23.800546646118164,61.24238586425781,0.0015992354601621628,-0.5967352390289307,-0.0,0.0
4872,118.69419670948992,0.0,-0.0,9.808854103088379,-5.510365781447035e-07,1.274938341566667e-07,-1.2462780807354079e-11,-23.800546646118164,61.24238586425781,0.0016035842709243298,-0.5967352390289307,-0.0,0.0
4873,118.7041967092664,0.0,-0.0,9.808857917785645,3.150219924918929e-07,-2.3100338353287952e-07,1.6760148824346288e-11,-23.800546646118164,61.24238586425781,0.001607818529009819,-0.5967352390289307,-0.0,0.0
4874,118.71419670904288,0.0,-0.0,9.80809211730957,-5.583158895205997e-07,1.1993654425168643e-07,4.032144410026639e-11,-23.800546646118164,61.24238586425781,0.0016118620987981558,-0.5967352390289307,-0.0,0.0
4875,118.72419670881936,0.0,-0.0,9.808855056762695,9.529530871077441e-07,1.292082600912181e-07,-1.5563350608260862e-10,-23.800546646118164,61.24238586425781,0.0016157912323251367,-0.5967352390289307,-0.0,0.0
4876,118.73419670859585,0.0,-0.0,9.80809497833252,3.012855813722126e-07,-2.2203212779459136e-07,6.427047782864292e-11,-23.800546646118164,61.24238586425781,0.001619529677554965,-0.5967352390289307,-0.0,0.0
4877,118.74419670837233,0.0,-0.0,9.8084716796875,2.9385395805547887e-07,-2.234608160733842e-07,-1.555736095504301e-11,-23.800546646118164,61.24238586425781,0.0016231155022978783,-0.5967352390289307,-0.0,0.0
4878,118.75419670814881,0.0,-0.0,9.808477401733398,2.9875369023102394e-07,4.7448494910895533e-07,6.991045936599605e-11,-23.800546646118164,61.24238586425781,0.0016265487065538764,-0.5967352390289307,-0.0,0.0
4879,118.7641967079253,0.0,-0.0,9.8084716796875,-5.972074177407194e-07,1.309133352833669e-07,2.5155766358864184e-11,-23.800546646118164,61.24238586425781,0.0016298294067382812,-0.5967352390289307,-0.0,0.0
4880,118.77419670770178,0.0,-0.0,9.80809497833252,-6.159566510177683e-07,1.3421771427601925e-07,-4.213068782732421e-11,-23.800546646118164,61.24238586425781,0.0016329193022102118,-0.5967352390289307,-0.0,0.0
4881,118.78419670747826,0.0,-0.0,9.80847454071045,1.141517145697435e-06,-5.701247687284194e-07,-2.0735790862147496e-10,-23.800546646118164,61.24238586425781,0.0016358565771952271,-0.5967352390289307,-0.0,0.0
4882,118.79419670725474,0.0,-0.0,9.808473587036133,-6.125029017312045e-07,1.2757115541717212e-07,2.726699976918212e-10,-23.800546646118164,61.24238586425781,0.0016386413481086493,-0.5967352390289307,-0.0,0.0
4883,118.80419670703122,0.0,-0.0,9.782154083251953,-0.0,-0.0,-0.0,-23.800546646118164,61.24238586425781,0.0016386413481086493,-0.5967352390289307,-0.0,0.0
4884,118.8141967068077,0.0,-0.0,9.8100004196167,-8.761210210650461e-07,3.46277204243961e-07,9.682896151552711e-11,-23.800546646118164,61.24238586425781,0.0016386413481086493,-0.5967352390289307,-0.0,0.0
4885,118.82419670658419,0.0,-0.0,9.824878692626953,1.5714338275074624e-08,-1.6498578503387762e-08,-1.3991033331883784e-10,-23.800546646118164,61.24238586425781,0.0016401290195062757,-0.5967352390289307,-0.0,0.0
4886,118.83419670636067,0.0,-0.0,9.805421829223633,3.6582594731271456e-08,-3.116897673294261e-08,2.7099267274621752e-11,-23.800546646118164,61.24238586425781,0.0016411590622738004,-0.5967352390289307,-0.0,0.0
4887,118.84419670613715,0.0,-0.0,9.811145782470703,-8.433005405095173e-07,3.141743434298405e-07,1.0688933071989482e-10,-23.800546646118164,61.24238586425781,0.0016423034248873591,-0.5967352390289307,-0.0,0.0
4888,118.85419670591364,0.0,-0.0,9.81114387512207,-8.399411512982624e-07,3.0665231065540866e-07,-3.94657362345896e-11,-23.800546646118164,61.24238586425781,0.0016435622237622738,-0.5967352390289307,-0.0,0.0
4889,118.86419670569012,0.0,-0.0,9.81076431274414,6.364388127622078e-08,-5.899839905509907e-08,-1.1117889942013903e-10,-23.800546646118164,61.24238586425781,0.001644897391088307,-0.5967352390289307,-0.0,0.0
4890,118.8741967054666,0.0,-0.0,9.810380935668945,9.896394885799964e-07,-4.284893293515779e-07,-6.320284573479995e-11,-23.800546646118164,61.24238586425781,0.0016462707426398993,-0.5967352390289307,-0.0,0.0
4891,118.88419670524308,0.0,-0.0,9.810380935668945,-7.332370728363458e-07,2.672728385277878e-07,2.453589831308278e-10,-23.800546646118164,61.24238586425781,0.001647682162001729,-0.5967352390289307,-0.0,0.0
4892,118.89419670501957,0.0,-0.0,9.810001373291016,1.3671859733221936e-07,-8.601124790175163e-08,-1.6275270020571497e-10,-23.800546646118164,61.24238586425781,0.0016490935813635588,-0.5967352390289307,-0.0,0.0
4893,118.90419670479605,0.0,-0.0,9.8100004196167,1.689787154646183e-06,-9.524399757765423e-08,-8.496980896666173e-11,-23.800546646118164,61.24238586425781,0.0016505050007253885,-0.5967352390289307,-0.0,0.0
4894,118.91419670457253,0.0,-0.0,9.809999465942383,1.8126880263480416e-07,-1.0307684306098963e-07,1.8197418572007962e-10,-23.800546646118164,61.24238586425781,0.0016519164200872183,-0.5967352390289307,-0.0,0.0
4895,118.92419670434901,0.0,-0.0,9.809619903564453,-7.016087693045847e-07,2.413204640561162e-07,4.624318983292852e-11,-23.800546646118164,61.24238586425781,0.0016532897716388106,-0.5967352390289307,-0.0,0.0
4896,118.9341967041255,0.0,-0.0,9.8100004196167,1.8214610975064716e-07,-1.167296304060983e-07,-1.5405482445274288e-10,-23.800546646118164,61.24238586425781,0.0016546630067750812,-0.5967352390289307,-0.0,0.0
4897,118.94419670390198,0.0,-0.0,9.809619903564453,2.0605328643341636e-07,-1.3187798231228953e-07,2.3516633085307603e-11,-23.800546646118164,61.24238586425781,0.0016559981741011143,-0.5967352390289307,-0.0,0.0
4898,118.95419670367846,0.0,-0.0,9.809236526489258,2.1485666934495384e-07,-1.3849212621153129e-07,8.13799375110058e-12,-23.800546646118164,61.24238586425781,0.0016572570893913507,-0.5967352390289307,-0.0,0.0
4899,118.96419670345495,0.0,-0.0,9.8100004196167,2.209473279890517e-07,-1.479255047343031e-07,8.884568428180195e-13,-23.800546646118164,61.24238586425781,0.0016585158882662654,-0.5967352390289307,-0.0,0.0
4900,118.97419670323143,0.0,-0.0,9.80923843383789,-6.573378072971536e-07,1.9694307695772295e-07,9.751473933894417e-11,-23.800546646118164,61.24238586425781,0.0016596984351053834,-0.5967352390289307,-0.0,0.0
4901,118.98419670300791,0.0,-0.0,9.80961799621582,-6.676650059489475e-07,1.955746569137773e-07,-3.9643927030041937e-11,-23.800546646118164,61.24238586425781,0.001660842914134264,-0.5967352390289307,-0.0,0.0
4902,118.9941967027844,0.0,-0.0,9.809619903564453,1.9692789976488712e-07,-1.5585762014325155e-07,-1.0791821603017837e-10,-23.800546646118164,61.24238586425781,0.0016619490925222635,-0.5967352390289307,-0.0,0.0
4903,119.00419670256088,0.0,-0.0,9.80961799621582,2.088139723355198e-07,-1.6391282997574308e-07,3.5826230870839026e-11,-23.800546646118164,61.24238586425781,0.0016630172031000257,-0.5967352390289307,-0.0,0.0
4904,119.01419670233736,0.0,-0.0,9.79931926727295,-6.743161975464318e-07,1.8049674110898195e-07,1.0794631161159529e-10,-23.800546646118164,61.24238586425781,0.0016630172031000257,-0.5967352390289307,-0.0,0.0
4905,119.02419670211384,0.0,-0.0,9.82945442199707,1.9353655034137773e-07,-1.699792306908421e-07,-1.3520007335898754e-10,-23.800546646118164,61.24238586425781,0.0016649627359583974,-0.5967352390289307,-0.0,0.0
4906,119.03419670189032,0.0,-0.0,9.790546417236328,1.7388058495271252e-06,-1.72129091424722e-07,-7.553975500673715e-11,-23.800546646118164,61.24238586425781,0.0016649627359583974,-0.5967352390289307,-0.0,0.0
4907,119.0441967016668,0.0,-0.0,9.82792854309082,-6.8566708932849e-07,1.8336170626298554e-07,2.845904623072215e-10,-23.800546646118164,61.24238586425781,0.001666755648329854,-0.5967352390289307,-0.0,0.0
4908,119.05419670144329,0.0,-0.0,9.792072296142578,1.8787103783779457e-07,-1.7278921404795256e-07,-1.9044962829006806e-10,-23.800546646118164,61.24238586425781,0.001666755648329854,-0.5967352390289307,-0.0,0.0
4909,119.06419670121977,0.0,-0.0,9.825641632080078,1.7552797260123043e-07,-1.6948897041402233e-07,1.5107831652372283e-11,-23.800546646118164,61.24238586425781,0.0016683196881785989,-0.5967352390289307,-0.0,0.0
4910,119.07419670099625,0.0,-0.0,9.79435920715332,8.323135034515872e-07,1.7986968714467366e-07,-1.3817575555963302e-12,-23.800546646118164,61.24238586425781,0.0016683196881785989,-0.5967352390289307,-0.0,0.0
4911,119.08419670077274,0.0,-0.0,9.824115753173828,-6.932156679795298e-07,1.744521824775802e-07,1.3614895322255904e-10,-23.800546646118164,61.24238586425781,0.0016697311075404286,-0.5967352390289307,-0.0,0.0
4912,119.09419670054922,0.0,-0.0,9.79588508605957,1.5425257515744306e-07,-1.6988796858186106e-07,-1.58623059132168e-10,-23.800546646118164,61.24238586425781,0.0016697311075404286,-0.5967352390289307,-0.0,0.0
4913,119.1041967003257,0.0,-0.0,9.822587966918945,1.5267255548678804e-07,-1.7273360697345197e-07,2.1297685837140534e-11,-23.800546646118164,61.24238586425781,0.0016709899064153433,-0.5967352390289307,-0.0,0.0
4914,119.11419670010218,0.0,-0.0,9.797412872314453,1.4967362460538425e-07,-1.7649428230015474e-07,6.8768072833402805e-12,-23.800546646118164,61.24238586425781,0.0016709899064153433,-0.5967352390289307,-0.0,0.0
4915,119.12419669987867,0.0,-0.0,9.821062088012695,-7.421892291858967e-07,1.7547030495279614e-07,9.975672371487221e-11,-23.800546646118164,61.24238586425781,0.0016720962012186646,-0.5967352390289307,-0.0,0.0
4916,119.13419669965515,0.0,-0.0,9.798938751220703,-7.630314939888194e-07,1.7930702256307995e-07,-3.893102507035451e-11,-23.800546646118164,61.24238586425781,0.0016720962012186646,-0.5967352390289307,-0.0,0.0
4917,119.14419669943163,0.0,-0.0,9.8100004196167,1.2843636909565248e-07,-1.6841882199969405e-07,-1.0997645849553095e-10,-23.800546646118164,61.24238586425781,0.0016720962012186646,-0.5967352390289307,-0.0,0.0
4918,119.15419669920811,0.0,-0.0,9.82449722290039,1.3786876706944895e-07,-1.6281012449326226e-07,3.8603453766938856e-11,-23.800546646118164,61.24238586425781,0.0016735458048060536,-0.5967352390289307,-0.0,0.0
4919,119.1641966989846,0.0,-0.0,9.795503616333008,1.172656993730925e-07,-1.5805207453922776e-07,1.2993633946578598e-11,-23.800546646118164,61.24238586425781,0.0016735458048060536,-0.5967352390289307,-0.0,0.0
4920,119.17419669876108,0.0,-0.0,9.8100004196167,-7.905206871328119e-07,1.9771728432260716e-07,1.0117471443971127e-10,-23.800546646118164,61.24238586425781,0.0016735458048060536,-0.5967352390289307,-0.0,0.0
4921,119.18419669853756,0.0,-0.0,9.82182502746582,7.683223088861268e-07,2.0594093541603797e-07,-1.462144016972644e-10,-23.800546646118164,61.24238586425781,0.0016747283516451716,-0.5967352390289307,-0.0,0.0
4922,119.19419669831404,0.0,-0.0,9.798175811767578,1.0334085942531601e-07,-1.3867492043573293e-07,7.038711280493715e-11,-23.800546646118164,61.24238586425781,0.0016747283516451716,-0.5967352390289307,-0.0,0.0
4923,119.20419669809053,0.0,-0.0,9.8100004196167,-8.074946435954189e-07,2.1801056959702692e-07,8.474199120200865e-11,-23.800546646118164,61.24238586425781,0.0016747283516451716,-0.5967352390289307,-0.0,0.0
4924,119.21419669786701,0.0,-0.0,9.8100004196167,7.142689923966827e-07,2.1784045145523123e-07,-1.4989529062425788e-10,-23.800546646118164,61.24238586425781,0.0016747283516451716,-0.5967352390289307,-0.0,0.0
4925,119.22419669764349,0.0,-0.0,9.8100004196167,-0.0,-0.0,-0.0,-23.800546646118164,61.24238586425781,0.0016747283516451716,-0.5967352390289307,-0.0,0.0
4926,119.23419669741997,0.0,-0.0,9.82029914855957,6.9998984386643315e-09,-1.037710006812631e-08,-1.5984599711568737e-12,-23.800546646118164,61.24238586425781,0.0016757582779973745,-0.5967352390289307,-0.0,0.0
4927,119.24419669719646,0.0,-0.0,9.799701690673828,-1.5520268403790283e-09,-1.0829259267097768e-08,8.227748994268924e-13,-23.800546646118164,61.24238586425781,0.0016757582779973745,-0.5967352390289307,-0.0,0.0
4928,119.25419669697294,0.0,-0.0,9.8100004196167,5.5484647987213975e-09,-1.838097318795917e-08,-1.6210888967999049e-12,-23.800546646118164,61.24238586425781,0.0016757582779973745,-0.5967352390289307,-0.0,0.0
4929,119.26419669674942,0.0,-0.0,9.8100004196167,8.866894063430664e-07,-3.722055907928734e-07,-9.776827958329903e-11,-23.800546646118164,61.24238586425781,0.0016757582779973745,-0.5967352390289307,-0.0,0.0
4930,119.2741966965259,0.0,-0.0,9.8100004196167,1.1064739346977603e-08,-2.9247766875073467e-08,1.3695258815893396e-10,-23.800546646118164,61.24238586425781,0.0016757582779973745,-0.5967352390289307,-0.0,0.0
4931,119.28419669630239,0.0,-0.0,9.8100004196167,-8.85248368831526e-07,3.218066808585718e-07,6.937967561571057e-11,-23.800546646118164,61.24238586425781,0.0016757582779973745,-0.5967352390289307,-0.0,0.0
4932,119.29419669607887,0.0,-0.0,9.8100004196167,-6.4912955011209306e-09,-3.4346086863479286e-08,-1.4801596059932365e-10,-23.800546646118164,61.24238586425781,0.0016757582779973745,-0.5967352390289307,-0.0,0.0
4933,119.30419669585535,0.0,-0.0,9.8100004196167,-8.963200457401399e-07,3.1570746727993537e-07,1.2573000973681303e-10,-23.800546646118164,61.24238586425781,0.0016757582779973745,-0.5967352390289307,-0.0,0.0
4934,119.31419669563184,0.0,-0.0,9.8100004196167,-1.876118638222124e-08,-4.044150259119306e-08,-1.3038395363373922e-10,-23.800546646118164,61.24238586425781,0.0016757582779973745,-0.5967352390289307,-0.0,0.0
4935,119.32419669540832,0.0,-0.0,9.820301055908203,8.871154477674281e-07,-3.943445676668489e-07,-6.873281804820053e-11,-23.800546646118164,61.24238586425781,0.0016767883207648993,-0.5967352390289307,-0.0,0.0
4936,119.3341966951848,0.0,-0.0,9.799699783325195,2.3100371393525165e-08,-4.4348198002808203e-08,1.4707531026392218e-10,-23.800546646118164,61.24238586425781,0.0016767883207648993,-0.5967352390289307,-0.0,0.0
4937,119.34419669496128,0.0,-0.0,9.8100004196167,2.007090671440892e-08,-4.1493198210673654e-08,-2.620917372020415e-11,-23.800546646118164,61.24238586425781,0.0016767883207648993,-0.5967352390289307,-0.0,0.0
4938,119.35419669473777,0.0,-0.0,9.8100004196167,1.417573702866548e-08,-4.336375880598098e-08,-8.20596542105978e-12,-23.800546646118164,61.24238586425781,0.0016767883207648993,-0.5967352390289307,-0.0,0.0
4939,119.36419669451425,0.0,-0.0,9.8100004196167,-8.69079315179988e-07,3.123485896594502e-07,9.640070686156577e-11,-23.800546646118164,61.24238586425781,0.0016767883207648993,-0.5967352390289307,-0.0,0.0
4940,119.37419669429073,0.0,-0.0,9.8100004196167,8.08778111149877e-09,-4.2857589477307556e-08,-1.3875756099679393e-10,-23.800546646118164,61.24238586425781,0.0016767883207648993,-0.5967352390289307,-0.0,0.0
4941,119.38419669406721,0.0,-0.0,9.8100004196167,1.5747858697068295e-06,-4.5056875563886933e-08,-7.698112980403238e-11,-23.800546646118164,61.24238586425781,0.0016767883207648993,-0.5967352390289307,-0.0,0.0
4942,119.3941966938437,0.0,-0.0,9.8100004196167,-8.337614190168097e-07,3.056880188978539e-07,2.8405505725359603e-10,-23.800546646118164,61.24238586425781,0.0016767883207648993,-0.5967352390289307,-0.0,0.0
4943,119.40419669362018,0.0,-0.0,9.8100004196167,-8.508183100275346e-07,3.0479543511319207e-07,-9.066167261373437e-11,-23.800546646118164,61.24238586425781,0.0016767883207648993,-0.5967352390289307,-0.0,0.0
4944,119.41419669339666,0.0,-0.0,9.82068157196045,9.1528727352852e-07,-4.0427744352200534e-07,-2.2311277825259879e-10,-23.800546646118164,61.24238586425781,0.0016778564313426614,-0.5967352390289307,-0.0,0.0
4945,119.42419669317314,0.0,-0.0,9.79931926727295,4.442992107556165e-08,-6.088175297236376e-08,1.7206326641261427e-10,-23.800546646118164,61.24238586425781,0.0016778564313426614,-0.5967352390289307,-0.0,0.0
4946,119.43419669294963,0.0,-0.0,9.8100004196167,4.7667402469642184e-08,-6.98152220479642e-08,-2.025284107087799e-11,-23.800546646118164,61.24238586425781,0.0016778564313426614,-0.5967352390289307,-0.0,0.0
4947,119.44419669272611,0.0,-0.0,9.8100004196167,4.3974051067152686e-08,-7.216258524067598e-08,-6.669309202123053e-12,-23.800546646118164,61.24238586425781,0.0016778564313426614,-0.5967352390289307,-0.0,0.0
4948,119.45419669250259,0.0,-0.0,9.8100004196167,-8.36651395275112e-07,2.708278543650522e-07,9.527018063337778e-11,-23.800546646118164,61.24238586425781,0.0016778564313426614,-0.5967352390289307,-0.0,0.0
4949,119.46419669227907,0.0,-0.0,9.8100004196167,1.574414454807993e-06,-7.706193372314374e-08,-2.4162064016231e-10,-23.800546646118164,61.24238586425781,0.0016778564313426614,-0.5967352390289307,-0.0,0.0
4950,119.47419669205556,0.0,-0.0,9.8100004196167,-8.199343710657558e-07,2.679765316315752e-07,3.0153732288873414e-10,-23.800546646118164,61.24238586425781,0.0016778564313426614,-0.5967352390289307,-0.0,0.0
4951,119.48419669183204,0.0,-0.0,9.8100004196167,9.215530099027092e-07,-4.372589046397479e-07,-2.7868898855309965e-10,-23.800546646118164,61.24238586425781,0.0016778564313426614,-0.5967352390289307,-0.0,0.0
4952,119.49419669160852,0.0,-0.0,9.8100004196167,-8.222824590120581e-07,2.5334657038911246e-07,2.483959704591143e-10,-23.800546646118164,61.24238586425781,0.0016778564313426614,-0.5967352390289307,-0.0,0.0
4953,119.504196691385,0.0,-0.0,9.8100004196167,9.238362395080912e-07,-4.4857023340227897e-07,-2.575301361051885e-10,-23.800546646118164,61.24238586425781,0.0016778564313426614,-0.5967352390289307,-0.0,0.0
4954,119.51419669116149,0.0,-0.0,9.8100004196167,-8.239322824010742e-07,2.420462692498404e-07,2.55025917050844e-10,-23.800546646118164,61.24238586425781,0.0016778564313426614,-0.5967352390289307,-0.0,0.0
4955,119.52419669093797,0.0,-0.0,9.8100004196167,3.7781429540473255e-08,-1.0839370645499002e-07,-1.5852158474771727e-10,-23.800546646118164,61.24238586425781,0.0016778564313426614,-0.5967352390289307,-0.0,0.0
4956,119.53419669071445,0.0,-0.0,9.8100004196167,3.299145134860737e-08,-1.1123103149657254e-07,2.1448065545826012e-11,-23.800546646118164,61.24238586425781,0.0016778564313426614,-0.5967352390289307,-0.0,0.0
4957,119.54419669049093,0.0,-0.0,9.8100004196167,-8.492857546116284e-07,2.3270557392152114e-07,1.0391262850184546e-10,-23.800546646118164,61.24238586425781,0.0016778564313426614,-0.5967352390289307,-0.0,0.0
4958,119.55419669026742,0.0,-0.0,9.8100004196167,9.96052129664804e-09,-1.1822174883491243e-07,-1.3536741172437416e-10,-23.800546646118164,61.24238586425781,0.0016778564313426614,-0.5967352390289307,-0.0,0.0
4959,119.5641966900439,0.0,-0.0,9.820301055908203,1.5507972648265422e-06,-1.2271637217509124e-07,-7.601996115935705e-11,-23.800546646118164,61.24238586425781,0.0016788863576948643,-0.5967352390289307,-0.0,0.0
4960,119.57419668982038,0.0,-0.0,9.799699783325195,2.529261955430684e-08,-1.276841601338674e-07,1.8433563009345733e-10,-23.800546646118164,61.24238586425781,0.0016788863576948643,-0.5967352390289307,-0.0,0.0
4961,119.58419668959687,0.0,-0.0,9.8100004196167,-8.599335501457972e-07,2.1389287496731413e-07,4.539418840820986e-11,-23.800546646118164,61.24238586425781,0.0016788863576948643,-0.5967352390289307,-0.0,0.0
4962,119.59419668937335,0.0,-0.0,9.8100004196167,3.915390234254801e-09,-1.3469278314914845e-07,-1.5201745418025325e-10,-23.800546646118164,61.24238586425781,0.0016788863576948643,-0.5967352390289307,-0.0,0.0
4963,119.60419668914983,0.0,-0.0,9.8100004196167,6.434071906369354e-07,2.1892140011914307e-07,2.084478423203251e-11,-23.800546646118164,61.24238586425781,0.0016788863576948643,-0.5967352390289307,-0.0,0.0
4964,119.61419668892631,0.0,-0.0,9.8100004196167,-1.2122097103883789e-08,-1.3322971881279955e-07,4.5957807004448625e-11,-23.800546646118164,61.24238586425781,0.0016788863576948643,-0.5967352390289307,-0.0,0.0
4965,119.6241966887028,0.0,-0.0,9.8100004196167,-8.939811664276931e-07,2.106725531803022e-07,7.41597686038098e-11,-23.800546646118164,61.24238586425781,0.0016788863576948643,-0.5967352390289307,-0.0,0.0
4966,119.63419668847928,0.0,-0.0,9.8100004196167,-3.289451200316762e-08,-1.3837701828833815e-07,-1.430717488926092e-10,-23.800546646118164,61.24238586425781,0.0016788863576948643,-0.5967352390289307,-0.0,0.0
4967,119.64419668825576,0.0,-0.0,9.8100004196167,-0.0,-0.0,-0.0,-23.800546646118164,61.24238586425781,0.0016788863576948643,-0.5967352390289307,-0.0,0.0
4968,119.65419668803224,0.0,-0.0,9.8100004196167,2.251395070373974e-09,2.3496156131841417e-09,1.022686980673565e-13,-23.800546646118164,61.24238586425781,0.0016788863576948643,-0.5967352390289307,-0.0,0.0
4969,119.66419668780873,0.0,-0.0,9.8100004196167,4.512624052210867e-09,4.69941774383642e-09,2.1714577293392712e-13,-23.800546646118164,61.24238586425781,0.0016788863576948643,-0.5967352390289307,-0.0,0.0
4970,119.67419668758521,0.0,-0.0,9.8100004196167,6.775315863905007e-09,7.049213657239761e-09,2.4587856707267153e-13,-23.800546646118164,61.24238586425781,0.0016788863576948643,-0.5967352390289307,-0.0,0.0
4971,119.68419668736169,0.0,-0.0,9.8100004196167,9.038156001395237e-09,9.39901756424888e-09,2.5129776189646014e-13,-23.800546646118164,61.24238586425781,0.0016788863576948643,-0.5967352390289307,-0.0,0.0
4972,119.69419668713817,0.0,-0.0,9.8100004196167,1.1301047209144599e-08,1.1748818806722738e-08,2.522007938859233e-13,-23.800546646118164,61.24238586425781,0.0016788863576948643,-0.5967352390289307,-0.0,0.0
4973,119.70419668691466,0.0,-0.0,9.8100004196167,1.356391354789821e-08,1.4098620937375017e-08,2.523134967017532e-13,-23.800546646118164,61.24238586425781,0.0016788863576948643,-0.5967352390289307,-0.0,0.0
4974,119.71419668669114,0.0,-0.0,9.8100004196167,1.5826776333938142e-08,1.6448423068027296e-08,2.523339068076502e-13,-23.800546646118164,61.24238586425781,0.0016788863576948643,-0.5967352390289307,-0.0,0.0
4975,119.72419668646762,0.0,-0.0,9.8100004196167,-6.203232487678179e-07,-3.329569153720513e-07,5.337264050858659e-12,-23.800546646118164,61.24238586425781,0.0016788863576948643,-0.5967352390289307,-0.0,0.0
4976,119.7341966862441,0.0,-0.0,9.8100004196167,5.485402709837217e-08,1.7737173507725856e-08,-3.9117653560794e-11,-23.800546646118164,61.24238586425781,0.0016788863576948643,-0.5967352390289307,-0.0,0.0
4977,119.74419668602059,0.0,-0.0,9.8100004196167,8.537475792991245e-08,2.0526520927433012e-08,2.3602998028282585e-11,-23.800546646118164,61.24238586425781,0.0016788863576948643,-0.5967352390289307,-0.0,0.0
4978,119.75419668579707,0.0,-0.0,9.8100004196167,1.1382228137790662e-07,2.328935622131212e-08,6.796443616230441e-12,-23.800546646118164,61.24238586425781,0.0016788863576948643,-0.5967352390289307,-0.0,0.0
4979,119.76419668557355,0.0,-0.0,9.8100004196167,1.2939757709773403e-07,3.173161644554057e-08,2.9294210286689992e-12,-23.800546646118164,61.24238586425781,0.0016788863576948643,-0.5967352390289307,-0.0,0.0
4980,119.77419668535003,0.0,-0.0,9.8100004196167,1.4487464738976996e-07,4.0174320758978865e-08,1.2842486405914566e-12,-23.800546646118164,61.24238586425781,0.0016788863576948643,-0.5967352390289307,-0.0,0.0
4981,119.78419668512652,0.0,-0.0,9.8100004196167,-1.376667569275014e-06,4.319054625057106e-08,1.0438413328150986e-10,-23.800546646118164,61.24238586425781,0.0016788863576948643,-0.5967352390289307,-0.0,0.0
4982,119.794196684903,0.0,-0.0,9.8100004196167,-1.3575923958342173e-06,4.407521814187021e-08,-7.306472094015248e-11,-23.800546646118164,61.24238586425781,0.0016788863576948643,-0.5967352390289307,-0.0,0.0
4983,119.80419668467948,0.0,-0.0,9.8100004196167,-4.448912420684792e-07,3.980252643032145e-07,-4.1345850354534974e-11,-23.800546646118164,61.24238586425781,0.0016788863576948643,-0.5967352390289307,-0.0,0.0
4984,119.81419668445596,0.0,-0.0,9.8100004196167,-4.153980910359678e-07,-3.042020750854135e-07,-3.6805912484449976e-11,-23.800546646118164,61.24238586425781,0.0016788863576948643,-0.5967352390289307,-0.0,0.0
4985,119.82419668423245,0.0,-0.0,9.8100004196167,-3.622255349000625e-07,-3.029670949672436e-07,6.161932075698928e-12,-23.800546646118164,61.24238586425781,0.0016788863576948643,-0.5967352390289307,-0.0,0.0
4986,119.83419668400893,0.0,-0.0,9.8100004196167,1.2037301075906726e-06,-3.032590996099316e-07,-1.0120915910905026e-10,-23.800546646118164,61.24238586425781,0.0016788863576948643,-0.5967352390289307,-0.0,0.0
4987,119.84419668378541,0.0,-0.0,9.8100004196167,1.2417078778526047e-06,-3.0238990689213097e-07,7.281521219315579e-11,-23.800546646118164,61.24238586425781,0.0016788863576948643,-0.5967352390289307,-0.0,0.0
4988,119.8541966835619,0.0,-0.0,9.8100004196167,3.863140705107071e-07,5.090732813073373e-08,1.1761960849732134e-10,-23.800546646118164,61.24238586425781,0.0016788863576948643,-0.5967352390289307,-0.0,0.0
4989,119.86419668333838,0.0,-0.0,9.8100004196167,3.980861436048144e-07,5.8908820932401795e-08,-3.5016253785435936e-11,-23.800546646118164,61.24238586425781,0.0016788863576948643,-0.5967352390289307,-0.0,0.0
4990,119.87419668311486,0.0,-0.0,9.8100004196167,4.1406539708077617e-07,6.6878634186196e-08,-9.496301314748656e-12,-23.800546646118164,61.24238586425781,0.0016788863576948643,-0.5967352390289307,-0.0,0.0
4991,119.88419668289134,0.0,-0.0,9.8100004196167,4.3050206954831083e-07,7.484789676936998e-08,-1.1975108404893575e-12,-23.800546646118164,61.24238586425781,0.0016788863576948643,-0.5967352390289307,-0.0,0.0
4992,119.89419668266783,0.0,-0.0,9.8100004196167,4.4700468038172403e-07,8.281719487968076e-08,4.631737701710215e-13,-23.800546646118164,61.24238586425781,0.0016788863576948643,-0.5967352390289307,-0.0,0.0
4993,119.90419668244431,0.0,-0.0,9.8100004196167,4.635167272226681e-07,9.078649298999153e-08,7.515633081156547e-13,-23.800546646118164,61.24238586425781,0.0016788863576948643,-0.5967352390289307,-0.0,0.0
4994,119.91419668222079,0.0,-0.0,9.8100004196167,-1.8199081353031943e-07,-2.543581558711594e-07,7.337846476274112e-12,-23.800546646118164,61.24238586425781,0.0016788863576948643,-0.5967352390289307,-0.0,0.0
4995,119.92419668199727,0.0,-0.0,9.8100004196167,4.804712148143153e-07,9.966206704348224e-08,-3.8116339945437616e-11,-23.800546646118164,61.24238586425781,0.0016788863576948643,-0.5967352390289307,-0.0,0.0
4996,119.93419668177376,0.0,-0.0,9.8100004196167,-1.7092943949137407e-07,-2.4025570155572495e-07,3.194478362389397e-11,-23.800546646118164,61.24238586425781,0.0016788863576948643,-0.5967352390289307,-0.0,0.0
4997,119.94419668155024,0.0,-0.0,9.8100004196167,4.835305844608229e-07,1.1896545970557781e-07,-3.0730477190710204e-11,-23.800546646118164,61.24238586425781,0.0016788863576948643,-0.5967352390289307,-0.0,0.0
4998,119.95419668132672,0.0,-0.0,9.8100004196167,-1.678612733257978e-07,-2.2095183282999642e-07,3.276916932248852e-11,-23.800546646118164,61.24238586425781,0.0016788863576948643,-0.5967352390289307,-0.0,0.0
4999,119.9641966811032,0.0,-0.0,9.8100004196167,-1.0554432492426713e-06,1.3944786303454748e-07,7.388122058582525e-11,-23.800546646118164,61.24238586425781,0.0016788863576948643,-0.5967352390289307,-0.0,0.0
5000,119.97419668087969,0.0,-0.0,9.8100004196167,-1.0526800906518474e-06,1.5170675737863348e-07,-4.6416967491857974e-11,-23.800546646118164,61.24238586425781,0.0016788863576948643,-0.5967352390289307,-0.0,0.0
5001,119.98419668065617,0.0,-0.0,9.8100004196167,-1.034758042806061e-06,1.5825924037926598e-07,-1.2571957364038155e-11,-23.800546646118164,61.24238586425781,0.0016788863576948643,-0.5967352390289307,-0.0,0.0
5002,119.99419668043265,0.0,-0.0,9.8100004196167,-1.0058248562927474e-06,1.591353679941676e-07,-3.219939939680394e-12,-23.800546646118164,61.24238586425781,0.0016788863576948643,-0.5967352390289307,-0.0,0.0
5003,120.00419668020913,0.0,-0.0,9.8100004196167,-8.89849616214633e-08,5.121367507854302e-07,-2.255866674016893e-11,-23.800546646118164,61.24238586425781,0.0016788863576948643,-0.5967352390289307,-0.0,0.0
5004,120.01419667998562,0.0,-0.0,9.8100004196167,-9.285477631237882e-07,1.6653181944548123e-07,6.449684536447009e-11,-23.800546646118164,61.24238586425781,0.0016788863576948643,-0.5967352390289307,-0.0,0.0
5005,120.0241966797621,0.0,-0.0,9.8100004196167,-2.3262977322247025e-07,-1.906695814568593e-07,-1.1539690036865835e-10,-23.800546646118164,61.24238586425781,0.0016788863576948643,-0.5967352390289307,-0.0,0.0
5006,120.03419667953858,0.0,-0.0,9.8100004196167,4.179582191454756e-08,-1.9085287306097598e-07,4.720855650841571e-12,-23.800546646118164,61.24238586425781,0.0016788863576948643,-0.5967352390289307,-0.0,0.0
5007,120.04419667931506,0.0,-0.0,9.8100004196167,9.265187372875516e-08,-1.895538872531688e-07,1.668216953465418e-11,-23.800546646118164,61.24238586425781,0.0016788863576948643,-0.5967352390289307,-0.0,0.0
5008,120.05419667909155,0.0,-0.0,9.8100004196167,1.3087979766623903e-07,-1.8257593126236316e-07,5.339778966217956e-12,-23.800546646118164,61.24238586425781,0.0016788863576948643,-0.5967352390289307,-0.0,0.0
5009,120.06419667886803,0.0,-0.0,9.8100004196167,-0.0,-0.0,-0.0,-23.800546646118164,61.24238586425781,0.0016788863576948643,-0.5967352390289307,-0.0,0.0
5010,120.07419667864451,0.0,-0.0,9.8100004196167,3.778604096282834e-08,6.977789013262736e-09,-1.801296091452631e-12,-23.800546646118164,61.24238586425781,0.0016788863576948643,-0.5967352390289307,-0.0,0.0
5011,120.084196678421,0.0,-0.0,9.8100004196167,7.573747495825955e-08,1.3956124256253588e-08,4.715954189660199e-15,-23.800546646118164,61.24238586425781,0.0016788863576948643,-0.5967352390289307,-0.0,0.0
5012,120.09419667819748,0.0,-0.0,9.8100004196167,1.1371278674232599e-07,2.093449147366755e-08,4.810891268691719e-13,-23.800546646118164,61.24238586425781,0.0016788863576948643,-0.5967352390289307,-0.0,0.0
5013,120.10419667797396,0.0,-0.0,9.8100004196167,1.4018854699315852e-07,3.359069467023801e-08,1.9659163619928366e-12,-23.800546646118164,61.24238586425781,0.0016788863576948643,-0.5967352390289307,-0.0,0.0
5014,120.11419667775044,0.0,-0.0,9.8100004196167,1.66614412933086e-07,4.6247379259511945e-08,1.4606376004533406e-12,-23.800546646118164,61.24238586425781,0.0016788863576948643,-0.5967352390289307,-0.0,0.0
5015,120.12419667752692,0.0,-0.0,9.8100004196167,1.9303315923480113e-07,5.890404608521749e-08,1.3190366767584782e-12,-23.800546646118164,61.24238586425781,0.0016788863576948643,-0.5967352390289307,-0.0,0.0
5016,120.13419667730341,0.0,-0.0,9.8100004196167,2.0527255628621788e-07,6.594174095653216e-08,1.6419063374531473e-12,-23.800546646118164,61.24238586425781,0.0016788863576948643,-0.5967352390289307,-0.0,0.0
5017,120.14419667707989,0.0,-0.0,9.8100004196167,2.05411666343025e-07,6.73550601959505e-08,1.1539536687310559e-12,-23.800546646118164,61.24238586425781,0.0016788863576948643,-0.5967352390289307,-0.0,0.0
5018,120.15419667685637,0.0,-0.0,9.8100004196167,2.0548910129036813e-07,6.876787495002645e-08,3.8541744665568367e-13,-23.800546646118164,61.24238586425781,0.0016788863576948643,-0.5967352390289307,-0.0,0.0
5019,120.16419667663286,0.23997129499912262,0.0025019091553986073,9.82068157196045,1.0786919119709637e-05,-0.0001480722421547398,0.00039977056439965963,-23.800521850585938,61.24238586425781,0.0016799544682726264,-0.5965093374252319,9.56226431299001e-05,1.9261709894635715e-05
5020,120.17419667640934,27.222932815551758,-0.07664147019386292,9.56054401397705,-2.387621861998923e-06,0.007055838592350483,0.0001751046656863764,-23.797775268554688,61.24235153198242,0.0016562652308493853,-0.5964089632034302,-0.003961509559303522,1.789028465282172e-05
5021,120.18419667618582,26.002029418945312,0.11062605679035187,9.657983779907227,-3.36545895152085e-06,0.011426973156630993,8.563797746319324e-05,-23.792428970336914,61.2422981262207,0.0016178512014448643,-0.5963599681854248,-0.010511660948395729,1.595578396518249e-05
5022,120.1941966759623,24.405176162719727,-0.0660310909152031,9.705525398254395,-2.755250534391962e-06,0.014300388284027576,5.054028588347137e-05,-23.784643173217773,61.24221420288086,0.001569785992614925,-0.596331000328064,-0.018694227561354637,1.4369703421834856e-05
5023,120.20419667573879,21.34522247314453,0.06210526451468468,9.756974220275879,-8.258660386673e-07,0.015620382502675056,3.313676643301733e-05,-23.774723052978516,61.24211120605469,0.001517448341473937,-0.5963116884231567,-0.027655433863401413,1.3888829926145263e-05
5024,120.21419667551527,19.62773323059082,-0.03579533100128174,9.778290748596191,-1.0815566611199756e-06,0.016126489266753197,2.0828678316320293e-05,-23.762842178344727,61.24198913574219,0.0014632033417001367,-0.5962997078895569,-0.036889851093292236,1.326237543253228e-05
5025,120.22419667529175,11.628379821777344,0.0009384963195770979,9.864567756652832,-1.7635752556088846e-06,0.01424496527761221,1.5932238966342993e-05,-23.74979591369629,61.24185562133789,0.0014153289375826716,-0.5962905883789062,-0.045051924884319305,1.2245380275999196e-05
5026,120.23419667506823,19.410181045532227,0.0019089555134996772,9.767424583435059,-8.769516739448591e-07,0.014965197071433067,3.22990899803699e-06,-23.734813690185547,61.24169921875,0.0013650130713358521,-0.596288800239563,-0.05362381041049957,1.1741320122382604e-05
5027,120.24419667484472,15.351840019226074,-0.04034389555454254,9.82398796081543,1.5657785752409836e-06,0.014105980284512043,3.290248514531413e-06,-23.71829605102539,61.24152374267578,0.0013177490327507257,-0.5962867736816406,-0.06171075627207756,1.2636575775104575e-05
5028,120.2541966746212,12.852413177490234,0.013633751310408115,9.839923858642578,5.146915214027104e-07,0.012725028209388256,4.91058290208457e-06,-23.70049285888672,61.241336822509766,0.001275024376809597,-0.5962840914726257,-0.06900539994239807,1.2928212527185678e-05
5029,120.26419667439768,12.793543815612793,0.013009000569581985,9.832798957824707,7.988968491190462e-07,0.011543437838554382,2.992333520523971e-06,-23.681413650512695,61.24113464355469,0.0012362670386210084,-0.5962822437286377,-0.0756101906299591,1.3383762961893808e-05
5030,120.27419667417416,7.013980865478516,0.03285258635878563,9.882516860961914,6.786096946598263e-07,0.009061148390173912,4.021556378575042e-06,-23.661632537841797,61.24093246459961,0.0012057494604960084,-0.596280038356781,-0.08080113679170609,1.3769380529993214e-05
5031,120.28419667395065,11.835700988769531,-0.036979056894779205,9.816746711730957,3.6476845366451016e-07,0.008332652971148491,-6.524438504129648e-06,-23.640670776367188,61.2407112121582,0.0011776733445003629,-0.5962836742401123,-0.08558226376771927,1.3983893950353377e-05
5032,120.29419667372713,6.655431270599365,0.029109252616763115,9.864876747131348,5.259943804958311e-07,0.006403818726539612,-3.92678048228845e-05,-23.61904525756836,61.24048614501953,0.001156120328232646,-0.5963063836097717,-0.08925008028745651,1.4319379260996357e-05
5033,120.30419667350361,9.696585655212402,-0.01925007998943329,9.825270652770996,-2.39328443285558e-07,0.005525181535631418,1.9035687728319317e-05,-23.596452713012695,61.24025344848633,0.0011376570910215378,-0.596295177936554,-0.09241928160190582,1.4165187167236581e-05
5034,120.3141966732801,6.195957183837891,0.06431370973587036,9.84706974029541,6.507725629489869e-07,0.0040664346888661385,7.823111809557304e-05,-23.573238372802734,61.240013122558594,0.0011239242739975452,-0.5962505340576172,-0.09474837779998779,1.4464718333329074e-05
5035,120.32419667305658,7.897810459136963,-0.07798273116350174,9.826839447021484,1.476705904224218e-07,0.0031694641802459955,-5.193765537114814e-05,-23.549240112304688,61.23976516723633,0.0011132049839943647,-0.5962801575660706,-0.09655837714672089,1.4599007954529952e-05
5036,120.33419667283306,5.996468544006348,0.062243472784757614,9.834113121032715,-1.2642733508982928e-06,0.0021482277661561966,-0.00013379806478042156,-23.524641036987305,61.23950958251953,0.0011059188982471824,-0.596356987953186,-0.09778781235218048,1.4004741387907416e-05
5037,120.34419667260954,6.757798194885254,-0.04984186589717865,9.825089454650879,1.2704648497674498e-06,0.0013738784473389387,3.245232437620871e-05,-23.49936866760254,61.2392463684082,0.0011013030307367444,-0.5963383913040161,-0.09858011454343796,1.4700623069074936e-05
5038,120.35419667238602,5.337099552154541,0.015370081178843975,9.828269004821777,-4.63324624888628e-07,0.0005453814519569278,8.425033593084663e-05,-23.47356605529785,61.23897933959961,0.0010994338663294911,-0.5962902307510376,-0.09889430552721024,1.4352005564433057e-05
5039,120.3641966721625,6.15703821182251,0.023903852328658104,9.817699432373047,2.3229014800563164e-07,-1.039081265474806e-08,-2.537549335102085e-05,-23.447147369384766,61.238704681396484,0.001099395682103932,-0.5962902307510376,-0.09889430552721024,1.4352005564433057e-05
5040,120.37419667193899,4.677478790283203,-0.031492821872234344,9.825242042541504,-1.442900952497439e-06,-0.0006768190069124103,-5.363184027373791e-05,-23.420263290405273,61.238426208496094,0.0011016845237463713,-0.5963354706764221,-0.09850498288869858,1.3736479559156578e-05
5041,120.38419667171547,5.717299461364746,-0.02066802978515625,9.812832832336426,1.4470132327915053e-06,-0.0010553492465987802,-8.960736522567458e-06,-23.39280891418457,61.23814010620117,0.0011052321642637253,-0.5963405966758728,-0.09790392965078354,1.45742551467265e-05
5042,120.39419667149195,4.2364020347595215,0.04392385482788086,9.820390701293945,-8.771420922926154e-09,-0.001577393733896315,1.3355625014810357e-06,-23.364933013916016,61.237850189208984,0.0011105346493422985,-0.5963397026062012,-0.096995510160923,1.4568002370651811e-05
5043,120.40419667126844,5.217402458190918,-0.06586947292089462,9.80966854095459,-1.0338361562389764e-06,-0.0018253301968798041,-1.0269245649396908e-05,-23.336538314819336,61.237552642822266,0.0011166762560606003,-0.5963454842567444,-0.09595049172639847,1.3985461009724531e-05
5044,120.41419667104492,3.895599603652954,0.0803837701678276,9.816165924072266,4.899366246036152e-08,-0.0022234241478145123,-1.2192572285130154e-05,-23.30775260925293,61.23725509643555,0.0011240767780691385,-0.5963525772094727,-0.09468007832765579,1.402532507199794e-05
5045,120.4241966708214,4.87654972076416,-0.029409203678369522,9.807790756225586,-1.2308140640016063e-07,-0.0023629579227417707,-1.1820044164778665e-05,-23.27848243713379,61.2369499206543,0.0011320494813844562,-0.5963592529296875,-0.09332086890935898,1.3965917787572835e-05
5046,120.43419667059788,3.6159448623657227,-0.002525351010262966,9.811849594116211,-2.451117779855849e-07,-0.00266236811876297,-1.1550573617569171e-05,-23.24885368347168,61.23664474487305,0.0011407851707190275,-0.5963661074638367,-0.09179090708494186,1.3836111065756995e-05
5047,120.44419667037437,4.515622615814209,0.006842731032520533,9.806716918945312,-2.888809547130222e-07,-0.0027162472251802683,-1.2929310287290718e-05,-23.218774795532227,61.236331939697266,0.0011499023530632257,-0.5963734984397888,-0.09023362398147583,1.3682386452273931e-05
5048,120.45419667015085,3.3954038619995117,-0.004814361687749624,9.812394142150879,-2.4622261207696283e-07,-0.0029375439044088125,-1.2928509931953158e-05,-23.188356399536133,61.23601531982422,0.0011597824050113559,-0.5963809490203857,-0.08856023102998734,1.3552838026953395e-05
5049,120.46419666992733,4.295470237731934,-0.0354439951479435,9.803114891052246,-1.1597785487538204e-06,-0.0029241873417049646,-1.3049547305854503e-05,-23.157508850097656,61.23569107055664,0.0011696242727339268,-0.5963882803916931,-0.08687999844551086,1.2899843568447977e-05
5050,120.47419666970382,3.174407958984375,0.032894160598516464,9.810636520385742,-8.5095126678425e-07,-0.0030853066127747297,-1.192495892610168e-05,-23.126346588134766,61.2353630065918,0.0011800002539530396,-0.5963951349258423,-0.08512464165687561,1.2422539839462843e-05
5051,120.4841966694803,4.094462871551514,0.0024730772711336613,9.801764488220215,1.8984025018653483e-06,-0.0030206991359591484,-9.869336281553842e-06,-23.094778060913086,61.23503875732422,0.0011901473626494408,-0.596400797367096,-0.08337611705064774,1.3518418199964799e-05
5052,120.49419666925678,3.0142252445220947,-0.008768166415393353,9.809531211853027,7.038516969259945e-07,-0.003135002451017499,-1.240720030182274e-05,-23.06290626525879,61.23470687866211,0.0012006759643554688,-0.5964078903198242,-0.08158660680055618,1.3931938156019896e-05
5053,120.50419666903326,3.933866500854492,0.0008086428279057145,9.80147647857666,-1.8815222802004428e-07,-0.003032068256288767,-1.1996569810435176e-05,-23.03064727783203,61.23436737060547,0.0012108993250876665,-0.5964146256446838,-0.07984490692615509,1.3833839147991966e-05
5054,120.51419666880975,2.873627185821533,-0.010224711149930954,9.808382034301758,1.0622566151141655e-06,-0.003112189471721649,-1.0502423720026854e-05,-22.998098373413086,61.234031677246094,0.001221351558342576,-0.5964207053184509,-0.07806222885847092,1.4450720300374087e-05
5055,120.52419666858623,3.7728617191314697,0.039141975343227386,9.800786972045898,1.0349712198376437e-07,-0.002980660879984498,-1.1991514838882722e-05,-22.965173721313477,61.23368835449219,0.0012313842307776213,-0.5964276790618896,-0.0763615071773529,1.4519297110382468e-05
5056,120.53419666836271,2.8134567737579346,-0.050846390426158905,9.807870864868164,-4.603129255542626e-08,-0.0030347388237714767,-1.31809229060309e-05,-22.931970596313477,61.23334503173828,0.0012415695236995816,-0.596435010433197,-0.07461981475353241,1.4502907106361818e-05
5057,120.5441966681392,3.6327013969421387,-0.0023122194688767195,9.799278259277344,-1.9386776273222495e-07,-0.002883395180106163,-1.3716175089939497e-05,-22.89840316772461,61.23299026489258,0.0012511443346738815,-0.5964431762695312,-0.07296007871627808,1.4401943190023303e-05
5058,120.55419666791568,2.712064504623413,0.028109006583690643,9.811593055725098,3.9461215806113614e-07,-0.0029199852142482996,-1.0668547474779189e-05,-22.864566802978516,61.23263931274414,0.001261215191334486,-0.5964491963386536,-0.07129351049661636,1.463578792026965e-05
5059,120.56419666769216,3.5521469116210938,-0.00314414594322443,9.796147346496582,3.0408330076170387e-07,-0.0027558321598917246,-1.1145501957798842e-05,-22.83037757873535,61.23228454589844,0.0012703322572633624,-0.5964558124542236,-0.06971573829650879,1.4817913324804977e-05
5060,120.57419666746864,2.6115245819091797,0.02706868201494217,9.809575080871582,2.8510945071502647e-07,-0.0027808076702058315,-1.1516602171468548e-05,-22.795927047729492,61.23192596435547,0.0012797164963558316,-0.5964624285697937,-0.06812430173158646,1.4989199371484574e-05
5061,120.58419666724512,3.4716274738311768,-0.0039760153740644455,9.799863815307617,1.1503341283969348e-06,-0.0026074096094816923,-1.1434464795456734e-05,-22.761133193969727,61.2315673828125,0.0012884902535006404,-0.5964686870574951,-0.06662849336862564,1.5655896277166903e-05
5062,120.5941966670216,2.5718438625335693,-0.05334264039993286,9.807847023010254,-6.029681287600397e-08,-0.0026234309189021587,-1.3292320545588154e-05,-22.726078033447266,61.231201171875,0.0012973403790965676,-0.5964766144752502,-0.06512585282325745,1.5630153939127922e-05
5063,120.60419666679809,3.4107182025909424,0.035398002713918686,9.800492286682129,-8.7632440681773e-07,-0.0024463669396936893,-1.2343518392299302e-05,-22.69068717956543,61.23082733154297,0.0013056182069703937,-0.5964837074279785,-0.06372565776109695,1.5136096408241428e-05
5064,120.61419666657457,2.510948419570923,-0.013968934305012226,9.807275772094727,3.223357794013282e-07,-0.0024585730861872435,-9.44501061894698e-06,-22.655046463012695,61.2304573059082,0.0013138961512595415,-0.5964889526367188,-0.0623118132352829,1.5326690117944963e-05
5065,120.62419666635105,3.3106746673583984,-0.005640165414661169,9.800375938415527,4.3277114514239656e-07,-0.002280068350955844,-9.764009519130923e-06,-22.61907386779785,61.23008346557617,0.0013215637300163507,-0.5964945554733276,-0.06100724637508392,1.5580570106976666e-05
5066,120.63419666612754,2.510084390640259,0.026029394939541817,9.807772636413574,-5.102428985992447e-07,-0.0022896258160471916,-1.0312008271284867e-05,-22.58285140991211,61.229705810546875,0.0013292693765833974,-0.5965005159378052,-0.05969585105776787,1.529448309156578e-05
5067,120.64419666590402,3.2702457904815674,-0.006056047510355711,9.80056381225586,-3.0083108981671103e-07,-0.0021117019932717085,-8.688205525686499e-06,-22.546302795410156,61.22932434082031,0.0013363647740334272,-0.5965054035186768,-0.058486904948949814,1.512736616859911e-05
5068,120.6541966656805,2.510502338409424,-0.05396579951047897,9.807877540588379,6.751024557161145e-07,-0.0021201930940151215,-8.386119588976726e-06,-22.509506225585938,61.228939056396484,0.0013434982392936945,-0.5965103507041931,-0.05727113410830498,1.5519026419497095e-05
5069,120.66419666545698,3.189018726348877,0.07310739904642105,9.800774574279785,8.481687814310135e-07,-0.0019460786134004593,-7.233224096125923e-06,-22.472389221191406,61.228553771972656,0.0013500213390216231,-0.5965142846107483,-0.05615781247615814,1.6009071259759367e-05
5070,120.67419666523347,2.4501240253448486,-0.05459001287817955,9.808796882629395,-1.1508537767213056e-07,-0.001954442821443081,-7.88285797170829e-06,-22.435028076171875,61.2281608581543,0.0013566588750109076,-0.5965189933776855,-0.055037662386894226,1.594765853951685e-05
5071,120.68419666500995,3.189067840576172,0.03310997784137726,9.80051326751709,-8.793838333076565e-07,-0.001782884355634451,-7.985084266692866e-06,-22.397350311279297,61.2277717590332,0.0013626479776576161,-0.5965235829353333,-0.05401313304901123,1.544807673781179e-05
5072,120.69419666478643,2.4693548679351807,-0.014383580535650253,9.808103561401367,5.423464699561009e-07,-0.0017952769994735718,-8.863503353495616e-06,-22.35942840576172,61.22737503051758,0.001368675148114562,-0.5965285301208496,-0.052988603711128235,1.576355134602636e-05
5073,120.70419666456291,3.129153251647949,-0.007511981762945652,9.801820755004883,-1.367574213873013e-07,-0.0016310226637870073,-7.172913228714606e-06,-22.321191787719727,61.22697448730469,0.0013741683214902878,-0.5965326428413391,-0.05205287039279938,1.56889309437247e-05
5074,120.7141966643394,2.4286179542541504,0.02519819885492325,9.808218955993652,1.000366182779544e-06,-0.00165248429402709,-5.925212917645695e-06,-22.28271484375,61.2265739440918,0.0013796996790915728,-0.5965359210968018,-0.05110347270965576,1.6265217709587887e-05
5075,120.72419666411588,3.02885103225708,-0.008552644401788712,9.802390098571777,1.5066527225826576e-07,-0.0014970027841627598,-5.505401531991083e-06,-22.243932723999023,61.22616958618164,0.001384735107421875,-0.5965391993522644,-0.050249699503183365,1.6354299077647738e-05
5076,120.73419666389236,2.4483225345611572,0.02540673315525055,9.808656692504883,2.3013784300474072e-07,-0.0015200385823845863,-5.2753225645574275e-06,-22.20490837097168,61.225765228271484,0.0013898467877879739,-0.596542239189148,-0.04938226565718651,1.648887337069027e-05
5077,120.74419666366884,3.008984327316284,-0.04875834658741951,9.802494049072266,7.107666988304118e-08,-0.0013742251321673393,-5.837041953782318e-06,-22.165584564208984,61.2253532409668,0.00139446253888309,-0.5965455174446106,-0.04858996346592903,1.6532438166905195e-05
5078,120.75419666344533,2.4076356887817383,0.0649883896112442,9.808757781982422,2.8033269927618676e-07,-0.001398581895045936,-4.7495323087787256e-06,-22.126022338867188,61.224945068359375,0.0013991546584293246,-0.5965482592582703,-0.047790832817554474,1.6695230442564934e-05
5079,120.76419666322181,2.9687252044677734,-0.04917445778846741,9.802987098693848,-5.146571879777184e-08,-0.001259000157006085,-6.233429758140119e-06,-22.086162567138672,61.22452926635742,0.001403388916514814,-0.5965518355369568,-0.04706000164151192,1.666878415562678e-05
5080,120.77419666299829,2.408216953277588,-0.015007040463387966,9.806913375854492,-6.557436336152023e-07,-0.0012845181627199054,-5.970780421193922e-06,-22.046062469482422,61.2241096496582,0.0014075088547542691,-0.5965553522109985,-0.04632917046546936,1.629580401640851e-05
5081,120.78419666277478,2.947657346725464,0.03061317279934883,9.80765438079834,-4.949637286699726e-07,-0.0011530235642567277,-4.630972853192361e-06,-22.00566864013672,61.223690032958984,0.0014116286765784025,-0.5965579152107239,-0.045659810304641724,1.601435724296607e-05
5082,120.79419666255126,2.347989320755005,-0.015631455928087234,9.804727554321289,9.71667191151937e-07,-0.001179266138933599,-5.31331579622929e-06,-21.965038299560547,61.2232666015625,0.0014154051896184683,-0.5965611338615417,-0.044990453869104385,1.657346001593396e-05
5083,120.80419666232774,2.9478564262390137,-0.009384261444211006,9.807720184326172,1.1123214704866768e-07,-0.0010539968498051167,-4.768262442667037e-06,-21.924118041992188,61.22283935546875,0.0014191818190738559,-0.5965635180473328,-0.04438939690589905,1.6639367458992638e-05
5084,120.81419666210422,2.347364664077759,0.02436661534011364,9.804774284362793,1.8886322550315526e-07,-0.0010799251031130552,-4.445676040631952e-06,-21.88296127319336,61.222412109375,0.001422615023329854,-0.5965663194656372,-0.04377467930316925,1.6749489077483304e-05
5085,120.8241966618807,2.8872435092926025,0.029989246279001236,9.808208465576172,9.424900895282917e-07,-0.0009631760185584426,-4.7753628678037785e-06,-21.84151840209961,61.221981048583984,0.0014260864118114114,-0.5965690016746521,-0.04322143644094467,1.729162977426313e-05
5086,120.83419666165719,2.3880038261413574,-0.05521224066615105,9.804791450500488,-2.2102463859141608e-08,-0.0009865636238828301,-5.1855995479854755e-06,-21.799835205078125,61.2215461730957,0.0014292144915089011,-0.5965721011161804,-0.042654529213905334,1.728118149912916e-05
5087,120.84419666143367,2.8074793815612793,-0.01084132306277752,9.806411743164062,-6.534552881021227e-07,-0.0008815460023470223,-4.4777716539101675e-06,-21.75787353515625,61.221107482910156,0.0014321899507194757,-0.5965746641159058,-0.042149096727371216,1.6908659745240584e-05
5088,120.85419666121015,2.4469964504241943,0.025408288463950157,9.808987617492676,1.4411695303806482e-07,-0.0008998363628052175,-3.6734713830810506e-06,-21.715667724609375,61.22066879272461,0.001435241661965847,-0.5965767502784729,-0.04163683205842972,1.6992789824143983e-05
5089,120.86419666098664,2.7273151874542236,-0.01167406514286995,9.804610252380371,2.1965004748381034e-07,-0.0008098874823190272,-2.9051891488052206e-06,-21.67319107055664,61.22022247314453,0.0014379500644281507,-0.5965785384178162,-0.04117237776517868,1.711983532004524e-05
5090,120.87419666076312,2.446835994720459,0.025408463552594185,9.808645248413086,5.225262498242955e-07,-0.0008180599543265998,-1.1331860605423572e-06,-21.630468368530273,61.21977996826172,0.0014406966511160135,-0.5965791344642639,-0.04070109501481056,1.7419690266251564e-05
5091,120.8841966605396,2.7071640491485596,-0.011882200837135315,9.80580997467041,-4.2420265344844665e-07,-0.0007450056145898998,-2.644757614689297e-06,-21.587474822998047,61.219329833984375,0.0014432143652811646,-0.5965806245803833,-0.040277622640132904,1.7177704648929648e-05
5092,120.89419666031608,2.467104911804199,-0.014381097629666328,9.807907104492188,-2.6425362875670544e-07,-0.0007437629974447191,-1.4008844573254464e-06,-21.54423713684082,61.21887969970703,0.0014456938952207565,-0.5965813398361206,-0.039847321808338165,1.7026868590619415e-05
5093,120.90419666009257,2.606611967086792,0.027074433863162994,9.806682586669922,-3.350803297053062e-07,-0.0006883260793983936,-1.6349221141354064e-06,-21.50074005126953,61.21842575073242,0.0014480209210887551,-0.5965821743011475,-0.03945117071270943,1.6835547285154462e-05
5094,120.91419665986905,2.5269670486450195,-0.013756366446614265,9.807897567749023,-2.649069301696727e-07,-0.0006777196540497243,-1.0437970558996312e-06,-21.456989288330078,61.21797180175781,0.0014503097627311945,-0.5965827107429504,-0.03906184807419777,1.6684205547790043e-05
5095,120.92419665964553,2.6064834594726562,0.027074450626969337,9.806716918945312,-4.5709018081652175e-07,-0.0006361691630445421,-2.1005989765399136e-06,-21.412981033325195,61.21751403808594,0.0014524459838867188,-0.5965840816497803,-0.03869985044002533,1.6423120541730896e-05
5096,120.93419665942201,2.4668474197387695,-0.014381084591150284,9.807588577270508,-5.484141070155601e-07,-0.0006203741068020463,-2.2924064069229644e-06,-21.368722915649414,61.2170524597168,0.0014545058365911245,-0.5965852737426758,-0.03834468126296997,1.6109743228298612e-05
5097,120.9441966591985,2.566784381866455,-0.013339711353182793,9.807538032531738,1.0388177997810999e-06,-0.000587683345656842,-1.979923354156199e-06,-21.32421112060547,61.216590881347656,0.0014564895536750555,-0.5965864658355713,-0.03801000118255615,1.6705753296264447e-05
5098,120.95419665897498,2.506315231323242,0.026033543050289154,9.807592391967773,8.339815735780576e-07,-0.0005683550261892378,-3.0057547064643586e-06,-21.279449462890625,61.21612548828125,0.001458396902307868,-0.5965881943702698,-0.03768215328454971,1.718471321510151e-05
5099,120.96419665875146,2.506679058074951,-0.013964280486106873,9.80760383605957,-8.284574164463265e-07,-0.0005425311392173171,-3.452320015639998e-06,-21.234437942504883,61.21565628051758,0.001460227882489562,-0.5965902209281921,-0.037374794483184814,1.671131576586049e-05
5100,120.97419665852794,2.5270440578460693,-0.0537538044154644,9.80760383605957,-1.4872152576117514e-07,-0.0005222217296250165,-3.0870805858285166e-06,-21.18917465209961,61.21518325805664,0.0014619827270507812,-0.5965918302536011,-0.037081096321344376,1.662726208451204e-05
5101,120.98419665830443,2.485748052597046,0.06582324951887131,9.80764389038086,-4.120836560872476e-09,-0.0004993335460312665,-2.1064690827188315e-06,-21.143661499023438,61.2147102355957,0.001463661203160882,-0.5965932011604309,-0.03679422661662102,1.662567228777334e-05
5102,120.99419665808091,2.526947259902954,-0.05375369265675545,9.80763053894043,-1.1545203904006485e-07,-0.00047857925528660417,-2.582504748716019e-06,-21.097896575927734,61.2142333984375,0.0014652633108198643,-0.5965946912765503,-0.03651418909430504,1.6560483345529065e-05
5103,121.00419665785739,2.4656569957733154,0.06561503559350967,9.808439254760742,-7.986792525116471e-07,-0.00045869292807765305,-2.404896804364398e-06,-21.05188751220703,61.21375274658203,0.0014668655348941684,-0.5965959429740906,-0.0362546406686306,1.6103736925288104e-05
5104,121.01419665763387,2.506859064102173,-0.05396191030740738,9.806904792785645,-3.8373997313101427e-07,-0.00043951402767561376,-3.594599775169627e-06,-21.005626678466797,61.2132682800293,0.0014683151384815574,-0.5965980291366577,-0.03599509596824646,1.5885187167441472e-05
5105,121.02419665741036,2.4659879207611084,0.025617292150855064,9.808079719543457,-2.0996616001411894e-07,-0.00042078440310433507,-2.3466470793209737e-06,-20.95911979675293,61.21278762817383,0.0014697265578433871,-0.5965994000434875,-0.03575603663921356,1.5765763237141073e-05
5106,121.03419665718684,2.5263614654541016,-0.013755744323134422,9.808055877685547,-5.146396802047093e-07,-0.0004034090379718691,-3.924415068468079e-06,-20.912363052368164,61.21229934692383,0.0014710997929796576,-0.5966016054153442,-0.03552381321787834,1.5472265658900142e-05
5107,121.04419665696332,2.4459116458892822,0.02540912665426731,9.807731628417969,-4.2433097746652493e-07,-0.00038525101263076067,-3.2583068332314724e-06,-20.865360260009766,61.21181106567383,0.0014723967760801315,-0.596603512763977,-0.03530524671077728,1.52303182403557e-05
5108,121.0541966567398,2.506288528442383,-0.013963739387691021,9.807703971862793,1.2522388033175957e-06,-0.0003679684887174517,-3.7418553802126553e-06,-20.8181095123291,61.2113151550293,0.0014736175071448088,-0.5966055989265442,-0.035093508660793304,1.5949113731039688e-05
5109,121.06419665651629,2.426257848739624,-0.014796718023717403,9.80814266204834,-2.3179687502761226e-07,-0.00035238315467722714,-1.914737822517054e-06,-20.770614624023438,61.21082305908203,0.0014748000539839268,-0.5966067314147949,-0.034888602793216705,1.5816935047041625e-05
5110,121.07419665629277,2.4858057498931885,0.02582583762705326,9.808116912841797,-1.0986623237840831e-06,-0.0003369376063346863,-3.010379941770225e-06,-20.72287368774414,61.2103271484375,0.0014759445330128074,-0.5966085195541382,-0.034697357565164566,1.5188512406894006e-05
5111,121.08419665606925,2.5061891078948975,-0.013963622972369194,9.80772876739502,2.954942033284169e-07,-0.0003217492194380611,-3.767988573599723e-06,-20.674882888793945,61.2098274230957,0.0014770126435905695,-0.5966106057167053,-0.034512944519519806,1.5359095414169133e-05
5112,121.09419665584574,2.425748109817505,0.02520122565329075,9.808165550231934,-5.875692181689374e-07,-0.0003069891536142677,-3.6621836443373468e-06,-20.62664794921875,61.20932388305664,0.0014780425699427724,-0.5966126918792725,-0.03434218838810921,1.5023713785922155e-05
5113,121.10419665562222,2.4861321449279785,-0.014171815477311611,9.808138847351074,-4.845136345466017e-07,-0.0002942051214631647,-2.9730324513366213e-06,-20.578166961669922,61.20882034301758,0.0014790344284847379,-0.5966143608093262,-0.03417143598198891,1.4747087334399112e-05
5114,121.1141966553987,2.446106195449829,-0.01458830013871193,9.808167457580566,-4.037809446799656e-07,-0.0002804090327117592,-2.496446541044861e-06,-20.52943992614746,61.20831298828125,0.0014799881028011441,-0.5966157913208008,-0.03400750830769539,1.4516629562422168e-05
5115,121.12419665517518,2.4656639099121094,0.025617893785238266,9.8081636428833,4.3929921389462834e-07,-0.00026816249010153115,-2.7732151011150563e-06,-20.48046875,61.20780563354492,0.0014809035928919911,-0.5966174006462097,-0.03386407718062401,1.476929901400581e-05
5116,121.13419665495167,2.446054697036743,-0.014588070102036,9.807801246643066,4.383268787933048e-07,-0.0002555240935180336,-2.982992555189412e-06,-20.431251525878906,61.20729446411133,0.0014817428309470415,-0.5966192483901978,-0.03370698168873787,1.5021381841506809e-05
5117,121.14419665472815,2.4664480686187744,-0.05437745526432991,9.808553695678711,8.93721050942986e-07,-0.00024469930212944746,-4.149118012719555e-06,-20.38178825378418,61.2067756652832,0.0014825820690020919,-0.596621572971344,-0.03357720747590065,1.553484980831854e-05
5118,121.15419665450463,2.4451749324798584,0.06540780514478683,9.807812690734863,-4.0304360027221264e-07,-0.00023373730073217303,-2.662054157553939e-06,-20.332082748413086,61.20625686645508,0.0014833450550213456,-0.5966231226921082,-0.03343377262353897,1.5304822227335535e-05
5119,121.16419665428111,2.466402530670166,-0.054377324879169464,9.808568000793457,5.426883262771298e-07,-0.00022204806737136096,-2.264252771055908e-06,-20.28213119506836,61.20573425292969,0.0014841079246252775,-0.5966243743896484,-0.03331083059310913,1.5616520613548346e-05
5120,121.1741966540576,2.4451329708099365,0.06540801376104355,9.808204650878906,7.624263957950461e-07,-0.00021254750026855618,-1.1523376315381029e-06,-20.231935501098633,61.2052116394043,0.001484832726418972,-0.5966249704360962,-0.03318788856267929,1.6053711078711785e-05
5121,121.18419665383408,2.446768283843994,-0.05458516255021095,10.517742156982422,7.727781508037879e-07,-0.00023827518452890217,-1.3070285831418005e-06,-20.181495666503906,61.20468521118164,0.0015564727364107966,-0.5966258645057678,-0.03305128216743469,1.6496935131726786e-05
5122,121.19419665361056,2.4454309940338135,0.025410205125808716,9.681568145751953,-7.02101146998757e-07,-0.00022531687864102423,-6.556429639203998e-07,-20.13081169128418,61.204158782958984,0.0016154098557308316,-0.5966261625289917,-0.03292151167988777,1.6094852981041186e-05
5123,121.20419665338704,2.46585750579834,-0.01437936257570982,9.701009750366211,-1.9474742884995067e-07,-0.0001938201894517988,-1.5085403219927684e-06,-20.07988166809082,61.2036247253418,0.001663589384406805,-0.5966261625289917,-0.03292151167988777,1.6094852981041186e-05
5124,121.21419665316353,2.3854165077209473,0.02478538081049919,9.717087745666504,-5.329484338290058e-07,-0.00020191294606775045,8.450267614534823e-07,-20.02871322631836,61.203094482421875,0.0017026137793436646,-0.5966264605522156,-0.032696112990379333,1.5678140698582865e-05
5125,121.22419665294001,2.505833864212036,-0.013962894678115845,9.729990005493164,-1.3135307597167412e-07,-0.000158579510753043,-2.3920974854263477e-06,-19.977294921875,61.20255661010742,0.0017337799072265625,-0.5966264605522156,-0.032696112990379333,1.5678140698582865e-05
5126,121.23419665271649,2.3458173274993896,-0.015628986060619354,9.744964599609375,9.834709402412045e-08,-0.0001970594166778028,3.4634738312888658e-06,-19.925643920898438,61.20201873779297,0.001758575439453125,-0.5966259241104126,-0.032498039305210114,1.5658912161597982e-05
5127,121.24419665249297,1.1250121593475342,0.051663387566804886,9.763976097106934,1.0680527111617266e-06,-0.0005063467542640865,-3.0135424822219647e-05,-19.87388038635254,61.20148468017578,0.001778831472620368,-0.5966432094573975,-0.032211169600486755,1.6280586351058446e-05
5128,121.25419665226946,0.9857691526412964,-0.02978995442390442,9.777029991149902,1.4010858251367608e-07,-0.0009037341806106269,-1.4764877960260492e-05,-19.822017669677734,61.2009391784668,0.0017958449898287654,-0.5966517925262451,-0.03167841583490372,1.636564229556825e-05
5129,121.26419665204594,-5.0545525550842285,-0.052689120173454285,9.832881927490234,9.164525067717477e-07,-0.002671122318133712,-9.439951099921018e-06,-19.770662307739258,61.20040512084961,0.0018148802919313312,-0.5966570377349854,-0.030148454010486603,1.689362215984147e-05
5130,121.27419665182242,1.4844160079956055,0.05541238188743591,9.765384674072266,-6.125021059233404e-07,-0.0023234880063682795,1.1203583198948763e-05,-19.719158172607422,61.199867248535156,0.0018295287154614925,-0.5966507792472839,-0.02882339619100094,1.653940307733137e-05
5131,121.2841966515989,-2.4756362438201904,0.014175557531416416,9.80469036102295,-6.426022309824475e-07,-0.002926777582615614,1.0181398693021038e-06,-19.66790199279785,61.19933319091797,0.001843528705649078,-0.596650242805481,-0.027150001376867294,1.617095767869614e-05
5132,121.29419665137539,1.7847157716751099,-0.021459480747580528,9.767616271972656,5.998741414714459e-08,-0.002352354349568486,7.187536539277062e-06,-19.61646842956543,61.19879913330078,0.0018533705733716488,-0.5966460704803467,-0.0257839635014534,1.6203435734496452e-05
5133,121.30419665115187,-2.7761385440826416,0.011051991954445839,9.813840866088867,-3.267289727659772e-08,-0.0029717544093728065,8.131562935886905e-06,-19.565311431884766,61.198265075683594,0.0018634796142578125,-0.5966414213180542,-0.024096906185150146,1.6182688341359608e-05
5134,121.31419665092835,2.204608917236328,-0.0570840910077095,9.767923355102539,-1.1296855007003614e-08,-0.002182531636208296,7.3496653385518584e-06,-19.513935089111328,61.19772720336914,0.0018694686004891992,-0.5966371893882751,-0.02284698188304901,1.6174508346011862e-05
5135,121.32419665070483,-2.3970530033111572,0.05500698834657669,9.816231727600098,-5.914073994972568e-07,-0.0026894332841038704,1.9057662257182528e-06,-19.462799072265625,61.19719696044922,0.0018759918166324496,-0.596636176109314,-0.021303359419107437,1.5835217709536664e-05
5136,121.33419665048132,2.4437382221221924,-0.014587298966944218,9.77137279510498,-1.1836402080689368e-07,-0.0018349033780395985,2.767797695923946e-06,-19.411420822143555,61.196659088134766,0.0018787384033203125,-0.5966346263885498,-0.02025151066482067,1.5766836440889165e-05
5137,121.3441966502578,-2.1770570278167725,0.01730024814605713,9.81949234008789,9.327085876975616e-07,-0.0023192439693957567,3.4545112157502444e-06,-19.36025619506836,61.19612503051758,0.0018823622958734632,-0.5966326594352722,-0.018912792205810547,1.630057522561401e-05
5138,121.35419665003428,2.7033591270446777,-0.011880097910761833,9.77367115020752,-5.161204512660333e-07,-0.0014303834177553654,5.00231044497923e-06,-19.308826446533203,61.19559097290039,0.0018824386643245816,-0.5966296195983887,-0.01810683123767376,1.6003950804588385e-05
5139,121.36419664981076,-1.9173966646194458,0.0200076662003994,9.82315731048584,-4.162537692309343e-08,-0.0019130301661789417,-6.654814797002473e-07,-19.257585525512695,61.1950569152832,0.001883773715235293,-0.5966300368309021,-0.017007170245051384,1.5980214811861515e-05
5140,121.37419664958725,2.92264461517334,0.030408471822738647,9.776357650756836,-7.070256629049254e-07,-0.001019589020870626,2.1377318262238987e-06,-19.206052780151367,61.19452667236328,0.001881828298792243,-0.5966289043426514,-0.016426604241132736,1.5574758435832337e-05
5141,121.38419664936373,-1.6564100980758667,-0.09727850556373596,9.824944496154785,-3.181135070917662e-07,-0.001517740311101079,2.0292225144658005e-07,-19.154687881469727,61.19398880004883,0.0018813323695212603,-0.5966286659240723,-0.01555234007537365,1.5392457498819567e-05
5142,121.39419664914021,3.102008104324341,0.07228050380945206,9.779043197631836,-2.4447717805742286e-07,-0.0006338881212286651,2.289586745973793e-06,-19.103010177612305,61.193450927734375,0.0018778227968141437,-0.5966274738311768,-0.015190339647233486,1.5252046068781056e-05
5143,121.4041966489167,-1.4374312162399292,-0.01499204896390438,9.827532768249512,-2.923651152286766e-07,-0.0011534766526892781,-1.559282281959895e-06,-19.05147933959961,61.19291305541992,0.001876029884442687,-0.5966283679008484,-0.014520981349050999,1.5084746337379329e-05
5144,121.41419664869318,3.283107280731201,-0.045838598161935806,9.78018569946289,5.375441105570644e-07,-0.00028619065415114164,8.611964119609183e-08,-18.99962043762207,61.1923713684082,0.0018713378813117743,-0.5966281890869141,-0.014363886788487434,1.5392712157336064e-05
5145,121.42419664846966,-1.2583825588226318,0.0668780654668808,9.82938003540039,6.393586318154121e-07,-0.0008304593502543867,6.108106163082994e-07,-18.947885513305664,61.19183349609375,0.0018685531103983521,-0.596627950668335,-0.013885773718357086,1.5758952940814197e-05
5146,121.43419664824614,3.4830150604248047,-0.04375595971941948,9.782072067260742,6.082189543121785e-07,1.5181221897364594e-05,1.8523475091569708e-06,-18.895803451538086,61.19129180908203,0.0018630599370226264,-0.596627950668335,-0.013885773718357086,1.5758952940814197e-05
5147,121.44419664802263,-1.0780271291732788,0.028754593804478645,9.830093383789062,-3.1467655503547576e-07,-0.0005511912168003619,-1.93475511878205e-06,-18.843828201293945,61.19075012207031,0.0018595504807308316,-0.5966280102729797,-0.013585245236754417,1.592715852893889e-05
5148,121.45419664779911,3.642982244491577,-0.04208992421627045,9.783567428588867,-3.1904227171253297e-07,0.0002714059955906123,6.432902637243387e-07,-18.791492462158203,61.19020462036133,0.0018534850096330047,-0.5966274738311768,-0.013742339797317982,1.574427187733818e-05
5149,121.46419664757559,-0.9384556412696838,0.0702102854847908,9.831584930419922,6.23427695245482e-07,-0.0003162454813718796,1.1447733641034574e-06,-18.739248275756836,61.18966293334961,0.0018495558761060238,-0.5966269969940186,-0.013557924889028072,1.6101301298476756e-05
5150,121.47419664735207,3.7829911708831787,-0.04063219949603081,9.784293174743652,-4.5325617747948854e-07,0.0004839710600208491,1.7161663663500804e-06,-18.686626434326172,61.18911361694336,0.001843147212639451,-0.5966259837150574,-0.013837962411344051,1.5841385902604088e-05
5151,121.48419664712856,-0.7775829434394836,-0.008119342848658562,9.832696914672852,5.098665951663861e-07,-0.0001231111236847937,-2.2073879790696083e-06,-18.63408088684082,61.188568115234375,0.0018389892065897584,-0.5966259837150574,-0.013837962411344051,1.5841385902604088e-05
5152,121.49419664690504,3.9026196002960205,0.0006152171990834177,9.784624099731445,-1.209281435876619e-06,0.0006537100416608155,-2.6472429226487293e-07,-18.581148147583008,61.18801498413086,0.0018323897384107113,-0.5966274738311768,-0.01413849089294672,1.5440991774084978e-05
5153,121.50419664668152,-0.6575377583503723,-0.006869880948215723,9.833050727844238,-4.4361942741488747e-07,3.292679684818722e-05,7.075632311170921e-07,-18.52828025817871,61.18746566772461,0.0018280792282894254,-0.5966274738311768,-0.01413849089294672,1.5440991774084978e-05
5154,121.514196646458,4.002695083618164,0.0016563944518566132,9.785711288452148,3.7286150700310827e-07,0.0007887254469096661,1.9477427031233674e-06,-18.475011825561523,61.18690872192383,0.001821441575884819,-0.5966259241104126,-0.014609773643314838,1.540005177957937e-05
5155,121.52419664623449,-0.517880916595459,0.03458576649427414,9.833403587341309,5.128537736709404e-07,0.00015366493607871234,-1.1113496611869778e-06,-18.421794891357422,61.18635559082031,0.0018171309493482113,-0.5966259241104126,-0.014609773643314838,1.540005177957937e-05
5156,121.53419664601097,4.102792739868164,0.0026977017987519503,9.786404609680176,-4.521943708368781e-07,0.0008906372240744531,6.653264676970139e-07,-18.3681697845459,61.18579864501953,0.0018105696653947234,-0.5966260433197021,-0.015210830606520176,1.5434887245646678e-05
5157,121.54419664578745,-0.43734216690063477,-0.004579072818160057,9.83338737487793,-4.765100527492905e-07,0.0002475270885042846,5.957074904472393e-07,-18.314586639404297,61.18524169921875,0.0018063354073092341,-0.5966258645057678,-0.01534743420779705,1.5161778719630092e-05
5158,121.55419664556393,4.1829071044921875,0.003530625719577074,9.786334037780762,3.070589968956483e-07,0.0009665714460425079,1.7509770486867637e-06,-18.260587692260742,61.1846809387207,0.001799850375391543,-0.5966248512268066,-0.01590750925242901,1.5337429431383498e-05
5159,121.56419664534042,-0.2968065142631531,-0.04311904311180115,9.833735466003418,2.516481742986798e-07,0.0003158665494993329,-2.010453044931637e-06,-18.20661735534668,61.184120178222656,0.0017957305535674095,-0.5966259837150574,-0.016085093840956688,1.5481937225558795e-05
5160,121.5741966451169,4.223451137542725,-0.03605062887072563,9.787027359008789,-8.152264285854471e-07,0.0010184551356360316,-9.168267638415273e-07,-18.152225494384766,61.18354797363281,0.0017894363263621926,-0.5966264605522156,-0.016665659844875336,1.501499082223745e-05
5161,121.58419664489338,-0.23792335391044617,0.07749909162521362,9.833723068237305,-5.125459097143903e-07,0.0003614602901507169,4.3366208046791144e-07,-18.097856521606445,61.1829833984375,0.0017855071928352118,-0.5966261625289917,-0.016877396032214165,1.4721258594363462e-05
5162,121.59419664466986,4.303585529327393,-0.03521760553121567,9.787324905395508,1.2224114698256017e-06,0.0010506848338991404,1.5502691894653253e-06,-18.043058395385742,61.182411193847656,0.0017794418381527066,-0.5966253876686096,-0.017478452995419502,1.5421352145494893e-05
5163,121.60419664444635,-0.13695402443408966,-0.0014552022330462933,9.833311080932617,-4.493230392199621e-07,0.00039096196996979415,-2.5324717967123433e-07,-17.9882755279541,61.18183898925781,0.0017757033929228783,-0.5966254472732544,-0.01770384982228279,1.5163954230956733e-05
5164,121.61419664422283,4.363308429718018,0.005404836963862181,9.787627220153809,-2.9284782954164257e-07,0.0010657206876203418,2.2437027382693486e-06,-17.933055877685547,61.1812629699707,0.0017698669107630849,-0.5966241359710693,-0.01831173524260521,1.4995775018178392e-05
5165,121.62419664399931,-0.11681066453456879,-0.0012469865614548326,9.834070205688477,-1.890252718794727e-07,0.0004044504021294415,1.932243094415753e-06,-17.87784767150879,61.180686950683594,0.0017664337065070868,-0.5966230034828186,-0.018543962389230728,1.4887118595652282e-05
5166,121.6341966437758,4.423449993133545,0.006029400508850813,9.787158966064453,8.353773068847659e-07,0.001067156670615077,4.40211715613259e-06,-17.82219696044922,61.18010711669922,0.0017608641646802425,-0.5966206789016724,-0.019158679991960526,1.5364930732175708e-05
5167,121.64419664355228,-0.036669906228780746,-0.0004138759395573288,9.833283424377441,-1.4349636145993827e-08,0.00040572983562014997,2.163770886909333e-06,-17.766551971435547,61.17952346801758,0.0017576217651367188,-0.5966194272041321,-0.019390905275940895,1.535629235149827e-05
5168,121.65419664332876,4.444007873535156,-0.03376040235161781,9.788229942321777,1.3009208714720444e-06,0.001057961257174611,5.763036369899055e-06,-17.710460662841797,61.17893981933594,0.0017523574642837048,-0.5966160893440247,-0.019991962239146233,1.6100504581118003e-05
5169,121.66419664310524,0.02305203676223755,0.040208980441093445,9.832883834838867,1.3514529655367369e-06,0.00039798725629225373,5.204590252105845e-06,-17.654369354248047,61.17835235595703,0.0017493820050731301,-0.5966131687164307,-0.02021735906600952,1.6873793356353417e-05
5170,121.67419664288172,4.484146595001221,-0.0333443321287632,9.787771224975586,8.340841191056825e-07,0.0010395313147455454,9.321104698756244e-06,-17.597829818725586,61.17776107788086,0.001744346576742828,-0.5966076850891113,-0.02081841602921486,1.734976285661105e-05
5171,121.68419664265821,0.04360825568437576,0.0004194588982500136,9.833253860473633,-2.0180664250801783e-07,0.0003816667012870312,4.901114607491763e-06,-17.541284561157227,61.17716979980469,0.0017416381742805243,-0.5966050028800964,-0.02103698067367077,1.723311288515106e-05
5172,121.69419664243469,4.52386474609375,0.007069369778037071,9.788077354431152,-4.6445686052720703e-07,0.001014831243082881,7.461134828190552e-06,-17.484289169311523,61.17657470703125,0.0017369078705087304,-0.5966005921363831,-0.021617546677589417,1.696543586149346e-05
5173,121.70419664221117,0.08374059945344925,0.000835992454085499,9.832476615905762,9.28547422063275e-07,0.00035796203883364797,8.214651643356774e-06,-17.427284240722656,61.17597961425781,0.0017344283405691385,-0.5965959429740906,-0.021822452545166016,1.7495658539701253e-05
5174,121.71419664198766,4.543994426727295,0.0072766998782753944,9.7883882522583,-1.1778703310483252e-06,0.0009840214625000954,1.163409342552768e-05,-17.369827270507812,61.17538070678711,0.0017299652099609375,-0.5965892672538757,-0.022382529452443123,1.681819230725523e-05
5175,121.72419664176414,0.12386736273765564,0.0012523834593594074,9.832459449768066,3.4861142239606124e-07,0.0003319292445667088,6.50385300104972e-06,-17.312358856201172,61.17477798461914,0.0017277526203542948,-0.5965855717658997,-0.022573774680495262,1.7016471247188747e-05
5176,121.73419664154062,4.544119358062744,0.007276113145053387,9.788331985473633,1.396049810864497e-06,0.000949827313888818,1.0086410838994198e-05,-17.254432678222656,61.17417526245117,0.001723556430079043,-0.5965797305107117,-0.02311335876584053,1.7814045349950902e-05
5177,121.7441966413171,0.16440574824810028,-0.03832877427339554,9.832059860229492,8.849413006828399e-07,0.0003017255512531847,1.2368245734251104e-05,-17.19649314880371,61.17356872558594,0.0017215728294104338,-0.5965726375579834,-0.02329777367413044,1.8318198272027075e-05
5178,121.75419664109359,4.5838212966918945,0.04768938571214676,9.788641929626465,7.228026106531615e-07,0.0009137520682998002,1.4005955563334282e-05,-17.13809585571289,61.17295837402344,0.001717643695883453,-0.596564769744873,-0.023816868662834167,1.8729047951637767e-05
5179,121.76419664087007,0.14452271163463593,-0.03853689879179001,9.831682205200195,7.730183710918936e-07,0.0002692564739845693,8.960711056715809e-06,-17.079683303833008,61.17234802246094,0.0017158889677375555,-0.5965595841407776,-0.023973962292075157,1.9169809093000367e-05
5180,121.77419664064655,4.604348182678223,0.007898916490375996,9.788581848144531,3.0705930953445204e-07,0.0008761443314142525,1.218065881403163e-05,-17.02081298828125,61.17173385620117,0.0017121887067332864,-0.5965526103973389,-0.024472566321492195,1.9342794985277578e-05
5181,121.78419664042303,0.20379552245140076,0.04208347573876381,9.831656455993652,3.3523656384204514e-07,0.00023624388268217444,1.4447001376538537e-05,-16.9619197845459,61.17111587524414,0.0017106628511101007,-0.5965443849563599,-0.024609170854091644,1.9531349607859738e-05
5182,121.79419664019952,4.5848708152771,-0.03230862691998482,9.78815746307373,-1.4459310193615238e-07,0.000837103056255728,1.8375729268882424e-05,-16.902570724487305,61.17049789428711,0.0017071532784029841,-0.5965337753295898,-0.025087283924221992,1.9443908968241885e-05
5183,121.804196639976,0.2247294783592224,-0.037703968584537506,9.832027435302734,6.633828206759063e-07,0.0002021506370510906,1.1910288776562084e-05,-16.843198776245117,61.16987609863281,0.0017058562953025103,-0.5965269804000854,-0.025203397497534752,1.982103094633203e-05
5184,121.81419663975248,4.5641374588012695,0.047477755695581436,9.788501739501953,1.7464129768995917e-06,0.000798747583758086,1.6262089047813788e-05,-16.783369064331055,61.16925048828125,0.0017026137793436646,-0.5965175628662109,-0.02566101960837841,2.0817482436541468e-05
5185,121.82419663952896,0.2943874001502991,0.0030227643437683582,9.831233024597168,2.7957653969679086e-07,0.00016885971126612276,1.9382687241886742e-05,-16.723512649536133,61.16862487792969,0.0017015074845403433,-0.5965175628662109,-0.02566101960837841,2.0817482436541468e-05
5186,121.83419663930545,4.574644088745117,0.007582156453281641,9.788454055786133,-1.219601974966622e-09,0.0007602241821587086,2.2211583200260065e-05,-16.663198471069336,61.16799545288086,0.001698455773293972,-0.5964938402175903,-0.02619377337396145,2.096620482916478e-05
5187,121.84419663908193,0.25489741563796997,-0.03739158809185028,9.831247329711914,-1.4141392057354096e-07,0.00013597361976280808,1.5747502402518876e-05,-16.602859497070312,61.16736602783203,0.001697540283203125,-0.5964938402175903,-0.02619377337396145,2.096620482916478e-05
5188,121.85419663885841,4.584726333618164,0.007684766780585051,9.788030624389648,1.7524013173897401e-06,0.0007229323964565992,2.0163550288998522e-05,-16.542062759399414,61.16673278808594,0.001694641076028347,-0.5964730978012085,-0.026678716763854027,2.1879775886191055e-05
5189,121.8641966386349,0.3141445517539978,0.04322875663638115,9.831217765808105,9.508576113148592e-07,0.0001035077148117125,2.2144382455735467e-05,-16.48123550415039,61.16609573364258,0.0016938780900090933,-0.5964730978012085,-0.026678716763854027,2.1879775886191055e-05
5190,121.87419663841138,4.565223693847656,-0.0325232669711113,9.788765907287598,5.399334099820408e-07,0.0006873811362311244,2.480993680364918e-05,-16.419950485229492,61.16545867919922,0.0016912078717723489,-0.59644615650177,-0.027143171057105064,2.2721316781826317e-05
5191,121.88419663818786,0.294641375541687,0.0030227291863411665,9.830461502075195,1.155927634499676e-06,7.125892443582416e-05,1.6763560779509135e-05,-16.3586368560791,61.164817810058594,0.0016905975062400103,-0.59644615650177,-0.027143171057105064,2.2721316781826317e-05
5192,121.89419663796434,4.604874610900879,0.00788932852447033,9.788713455200195,6.352918830998533e-07,0.0006536570144817233,2.2421176254283637e-05,-16.296865463256836,61.1641731262207,0.0016880797920748591,-0.5964237451553345,-0.027552980929613113,2.3736918592476286e-05
5193,121.90419663774082,0.29471150040626526,0.00302278995513916,9.830079078674316,-2.0294400826514902e-07,4.1981416870839894e-05,2.426821993140038e-05,-16.235063552856445,61.16352844238281,0.0016875838628038764,-0.5964237451553345,-0.027552980929613113,2.3736918592476286e-05
5194,121.9141966375173,4.5753560066223145,-0.03242307901382446,9.789078712463379,5.969381078330116e-08,0.0006202682270668447,2.537080945330672e-05,-16.17280387878418,61.162879943847656,0.0016852187691256404,-0.5963951945304871,-0.02791498228907585,2.36410996876657e-05
5195,121.92419663729379,0.3243568241596222,0.04333272948861122,9.830063819885254,-2.416207394162484e-07,1.4414958059205674e-05,1.8369029930909164e-05,-16.110511779785156,61.1622314453125,0.0016848754603415728,-0.5963951945304871,-0.02791498228907585,2.36410996876657e-05
5196,121.93419663707027,4.575416564941406,-0.03242509067058563,9.78866958618164,-1.0137048320757458e-06,0.0005884611746296287,2.3045187845127657e-05,-16.04776382446289,61.16157531738281,0.0016826248029246926,-0.5963715314865112,-0.02827698178589344,2.2910255211172625e-05
5197,121.94419663684675,0.33441758155822754,0.043436553329229355,9.830818176269531,4.504574349084578e-07,-1.2162426173745189e-05,2.4284863684442826e-05,-15.984983444213867,61.16092300415039,0.0016824721824377775,-0.5963715314865112,-0.02827698178589344,2.2910255211172625e-05
5198,121.95419663662324,4.5554704666137695,-0.0326354019343853,9.78789234161377,5.483705081132939e-07,0.0005589723587036133,2.4683829906280152e-05,-15.921748161315918,61.16026306152344,0.0016803359612822533,-0.5963433980941772,-0.02859117090702057,2.346869405300822e-05
5199,121.96419663639972,0.3548867404460907,0.0036468161270022392,9.830806732177734,-3.0355229796441563e-07,-3.7215519114397466e-05,1.8922150047728792e-05,-15.858476638793945,61.159603118896484,0.001680297777056694,-0.5963433980941772,-0.02859117090702057,2.346869405300822e-05
5200,121.9741966361762,4.545103073120117,0.007256502751260996,9.78825569152832,-5.84763768074481e-07,0.0005312403081916273,2.004279667744413e-05,-15.79475212097168,61.158939361572266,0.0016783141763880849,-0.5963211059570312,-0.028871208429336548,2.2948543119127862e-05
5201,121.98419663595269,0.3649338483810425,0.003750666044652462,9.830035209655762,-2.890688506340666e-07,-6.047618808224797e-05,1.9535729734343477e-05,-15.730990409851074,61.15827560424805,0.0016783523606136441,-0.5963211059570312,-0.028871208429336548,2.2948543119127862e-05
5202,121.99419663572917,4.54514741897583,0.0072546848095953465,9.788619041442871,-5.542175927075732e-07,0.0005058954120613635,1.8702408851822838e-05,-15.666775703430176,61.1576042175293,0.001676483079791069,-0.5962992310523987,-0.029130754992365837,2.245431642222684e-05
5203,122.00419663550565,0.3549789488315582,0.0036463718861341476,9.830038070678711,-9.131325668931822e-07,-8.276655717054382e-05,1.2276937013666611e-05,-15.60252571105957,61.15693664550781,0.0016766357002779841,-0.5962992310523987,-0.029130754992365837,2.245431642222684e-05
5204,122.01419663528213,4.535603046417236,-0.03284859284758568,9.78822135925293,-1.187617613140901e-06,0.00048056626110337675,1.317117039434379e-05,-15.537822723388672,61.1562614440918,0.0016748427879065275,-0.5962845683097839,-0.029356151819229126,2.124320963048376e-05
5205,122.02419663505862,0.3845995366573334,0.04395611211657524,9.829642295837402,-1.4653351172455586e-06,-0.00010226167069049552,1.3056518582743593e-05,-15.473081588745117,61.15559005737305,0.00167503347620368,-0.5962845683097839,-0.029356151819229126,2.124320963048376e-05
5206,122.0341966348351,4.505642414093018,-0.03316200152039528,9.7893648147583,7.370748562607332e-07,0.000458258407888934,1.2063416761520784e-05,-15.407890319824219,61.154911041259766,0.0016733931843191385,-0.5962702035903931,-0.029574718326330185,2.0818564735236578e-05
5207,122.04419663461158,0.40505197644233704,0.0041662477888166904,9.82924747467041,-1.1030019777535927e-06,-0.00012114014680264518,7.3013611654459964e-06,-15.342659950256348,61.154232025146484,0.0016736984252929688,-0.5962702035903931,-0.029574718326330185,2.0818564735236578e-05
5208,122.05419663438806,4.495254039764404,0.006730829365551472,9.788594245910645,-1.239774519490311e-06,0.0004377529548946768,8.416815944656264e-06,-15.276979446411133,61.15354919433594,0.0016720962012186646,-0.596261203289032,-0.029738642275333405,1.9471604900900275e-05
5209,122.06419663416455,0.4046638309955597,0.044163789600133896,9.829248428344727,1.0147072515565014e-07,-0.0001386539952363819,7.338541308854474e-06,-15.211259841918945,61.15286636352539,0.0016724395100027323,-0.596261203289032,-0.029738642275333405,1.9471604900900275e-05
5210,122.07419663394103,4.4861159324646,-0.07336976379156113,9.789730072021484,-1.9104397779301507e-06,0.0004179361858405173,8.25351344246883e-06,-15.14509105682373,61.15217590332031,0.0016709899064153433,-0.59625244140625,-0.029902566224336624,1.8430508134770207e-05
5211,122.08419663371751,0.4146910607814789,0.04426760971546173,9.828478813171387,-8.984989676719124e-07,-0.00015410514606628567,4.207682650303468e-06,-15.078883171081543,61.1514892578125,0.0016714095836505294,-0.59625244140625,-0.029902566224336624,1.8430508134770207e-05
5212,122.094196633494,4.475309371948242,0.006521223578602076,9.789342880249023,-1.39983342251071e-06,0.0003992436686530709,4.241337137500523e-06,-15.012226104736328,61.150794982910156,0.0016699981642886996,-0.5962474942207336,-0.030052831396460533,1.7111116903834045e-05
5213,122.10419663327048,0.4151332974433899,0.0042695156298577785,9.828859329223633,8.052221289744921e-08,-0.00016885355580598116,3.838401426037308e-06,-14.945528984069824,61.15010070800781,0.0016704940935596824,-0.5962474942207336,-0.030052831396460533,1.7111116903834045e-05
5214,122.11419663304696,4.475746154785156,-0.03347707912325859,9.78895092010498,-6.629686595260864e-07,0.000382738362532109,5.550755759031745e-06,-14.878385543823242,61.1494026184082,0.00166912074200809,-0.5962422490119934,-0.030175773426890373,1.6774576579337008e-05
5215,122.12419663282344,0.4047187566757202,0.04416310414671898,9.828862190246582,-8.149357881848118e-07,-0.00018227122200187296,1.7366049860356725e-06,-14.811202049255371,61.148704528808594,0.001669654855504632,-0.5962412357330322,-0.030059661716222763,1.6307096302625723e-05
5216,122.13419663259992,4.465764045715332,-0.033581484109163284,9.789334297180176,-9.962251397155342e-07,0.0003672072198241949,1.9798853827524e-06,-14.743571281433105,61.14800262451172,0.0016683577559888363,-0.5962400436401367,-0.030271396040916443,1.5735759006929584e-05
5217,122.1441966323764,0.41515204310417175,0.004269175697118044,9.828856468200684,-4.956203270012338e-07,-0.00019328891357872635,6.843423534519388e-07,-14.67590045928955,61.14729690551758,0.001668968121521175,-0.5962397456169128,-0.030162114650011063,1.5451563740498386e-05
5218,122.15419663215289,4.4653639793396,0.0064161960035562515,9.789324760437012,4.2104468889192503e-07,0.00035226417821832,2.73610226031451e-06,-14.607784271240234,61.14659118652344,0.0016677475068718195,-0.5962381958961487,-0.030367018654942513,1.5691961380071007e-05
5219,122.16419663192937,0.3951669931411743,0.0040610171854496,9.828484535217285,-7.122277452253911e-07,-0.00020531353948172182,-1.103660110857163e-06,-14.539627075195312,61.14588165283203,0.0016683959402143955,-0.5962387919425964,-0.030244076624512672,1.5284211258403957e-05
5220,122.17419663170585,4.475374698638916,0.006520274560898542,9.789313316345215,9.48995975136313e-08,0.0003391534846741706,-7.35717890165688e-07,-14.471025466918945,61.14516830444336,0.0016672133933752775,-0.5962392091751099,-0.03043532185256481,1.5338822777266614e-05
5221,122.18419663148234,0.3951787054538727,0.004060950130224228,9.828487396240234,-8.758171929912351e-07,-0.00021460642165038735,-1.613037966308184e-06,-14.402382850646973,61.14445495605469,0.0016679000109434128,-0.5962401628494263,-0.030312377959489822,1.4837483831797726e-05
5222,122.19419663125882,4.445804595947266,-0.03378967568278313,9.789320945739746,5.722249056816509e-07,0.00032734853448346257,-5.466820880428713e-07,-14.333296775817871,61.14373779296875,0.001666755648329854,-0.5962403416633606,-0.03050362318754196,1.5165530385274906e-05
5223,122.2041966310353,0.42477136850357056,0.044370926916599274,9.828471183776855,-1.154616711573908e-06,-0.0002241273905383423,-3.4293332191737136e-06,-14.264168739318848,61.14302062988281,0.0016674804501235485,-0.596242368221283,-0.030373848974704742,1.4505059880320914e-05
5224,122.21419663081178,4.415815353393555,-0.034101683646440506,9.789336204528809,-5.804162128697499e-07,0.0003162147186230868,-4.454486770555377e-06,-14.194599151611328,61.14229965209961,0.0016663741553202271,-0.5962449312210083,-0.030558263882994652,1.4173808267514687e-05
5225,122.22419663058827,0.46519458293914795,0.004789191298186779,9.828064918518066,-1.6351094700439717e-06,-0.0002317356556886807,-9.938191396940965e-06,-14.124984741210938,61.14157485961914,0.0016670989571139216,-0.596250593662262,-0.030428491532802582,1.3240019143268e-05
5226,122.23419663036475,4.37540864944458,0.005480548366904259,9.7897367477417,-3.655316618278448e-07,0.0003059075097553432,-9.26159555092454e-06,-14.054932594299316,61.14085006713867,0.0016660308465361595,-0.5962560176849365,-0.03059924580156803,1.3033350114710629e-05
5227,122.24419663014123,0.45478495955467224,0.04468289762735367,9.828453063964844,-1.30987029933749e-06,-0.00023940099345054477,-1.2599676665558945e-05,-13.98483657836914,61.14012145996094,0.0016668319003656507,-0.59626305103302,-0.030462641268968582,1.2286714991205372e-05
5228,122.25419662991771,4.376246452331543,-0.07451410591602325,9.788969039916992,-7.686581682264659e-08,0.000296060461550951,-1.3956797374703456e-05,-13.914301872253418,61.13938903808594,0.0016657637897878885,-0.5962709188461304,-0.03063339740037918,1.2246954611327965e-05
5229,122.2641966296942,0.45479080080986023,0.04468284919857979,9.828451156616211,-1.7170360706586507e-06,-0.000246481184149161,-1.4967796232667752e-05,-13.84372329711914,61.13865661621094,0.0016665649600327015,-0.5962795615196228,-0.030496792867779732,1.1267752597632352e-05
5230,122.27419662947068,4.385417938232422,0.005586725659668446,9.790108680725098,-5.196062602408347e-07,0.0002877804508898407,-1.5050154615892097e-05,-13.772706031799316,61.13792037963867,0.0016656112857162952,-0.5962882041931152,-0.03065388649702072,1.0974657925544307e-05
5231,122.28419662924716,0.436042457818985,-0.07551881670951843,9.827316284179688,-1.2588526487888885e-06,-0.0002525541349314153,-1.6831758330226876e-05,-13.701644897460938,61.137176513671875,0.0016664123395457864,-0.5962978601455688,-0.03051045350730419,1.0258508154947776e-05
5232,122.29419662902365,4.3745880126953125,0.08547956496477127,9.790114402770996,-1.661442979639105e-06,0.00027998449513688684,-1.806780528568197e-05,-13.630148887634277,61.13643264770508,0.0016654586652293801,-0.5963082313537598,-0.03066754713654518,9.312120710092131e-06
5233,122.30419662880013,0.45604395866394043,-0.07531075924634933,9.827685356140137,-8.656839440845943e-07,-0.00025763711892068386,-1.8533628463046625e-05,-13.55860710144043,61.13568878173828,0.0016662979032844305,-0.596318781375885,-0.03052411414682865,8.821763913147151e-06
5234,122.31419662857661,4.345008850097656,0.0451708547770977,9.790128707885742,-9.648075547374901e-07,0.0002719094045460224,-1.6605308701400645e-05,-13.4866304397583,61.13494110107422,0.0016653822967782617,-0.5963283777236938,-0.03068803809583187,8.273994353658054e-06
5235,122.32419662835309,0.4656282663345337,-0.03520878031849861,9.827683448791504,5.934263569429277e-08,-0.00026215577963739634,-1.7550953998579644e-05,-13.4146089553833,61.13418960571289,0.0016662597190588713,-0.5963384509086609,-0.03053094446659088,8.313402759085875e-06
5236,122.33419662812958,4.345425128936768,0.005174507386982441,9.790124893188477,1.2638416535537544e-07,0.00026528642047196627,-1.6227240848820657e-05,-13.34215259552002,61.13343048095703,0.0016653822967782617,-0.5963476896286011,-0.03068803809583187,8.390747098019347e-06
5237,122.34419662790606,0.4552120864391327,0.004685094114392996,9.82692813873291,-3.4156124684159295e-07,-0.00026580895064398646,-1.5176316992437933e-05,-13.269651412963867,61.13267517089844,0.001666221534833312,-0.5963563919067383,-0.03053094446659088,8.199724106816575e-06
5238,122.35419662768254,4.3254265785217285,0.0049676476046442986,9.79051685333252,1.3494535551217268e-06,0.0002589947252999991,-1.2723367035505362e-05,-13.196718215942383,61.13191223144531,0.0016653442289680243,-0.5963636636734009,-0.03068803809583187,8.976843673735857e-06
5239,122.36419662745902,0.4756266176700592,-0.03510431945323944,9.827677726745605,1.3748039151550984e-08,-0.0002701488556340337,-1.273358975595329e-05,-13.123738288879395,61.13114929199219,0.0016662597190588713,-0.596371054649353,-0.03052411414682865,8.988607078208588e-06
5240,122.3741966272355,4.315423488616943,0.00486458744853735,9.790143966674805,3.6303279671301425e-07,0.000252796511631459,-9.877864613372367e-06,-13.050328254699707,61.1303825378418,0.001665420481003821,-0.5963766574859619,-0.03066754713654518,9.199601663567591e-06
5241,122.38419662701199,0.4647918939590454,0.04478754848241806,9.827301979064941,1.6697979390301043e-06,-0.0002735382877290249,-9.260634215024766e-06,-12.976871490478516,61.12961959838867,0.001666335971094668,-0.5963819026947021,-0.03051045350730419,1.015918496705126e-05
5242,122.39419662678847,4.295838832855225,-0.035340506583452225,9.789774894714355,1.0799441270137322e-06,0.0002466265868861228,-5.680586582457181e-06,-12.902984619140625,61.12884521484375,0.0016654586652293801,-0.5963851809501648,-0.03065388649702072,1.0779714102682192e-05
5243,122.40419662656495,0.4952046573162079,0.005102288443595171,9.828048706054688,1.55950408498029e-06,-0.00027545669581741095,-4.9256423153565265e-06,-12.829050064086914,61.128074645996094,0.0016664123395457864,-0.5963879823684692,-0.030496792867779732,1.167470691143535e-05
5244,122.41419662634144,4.27541971206665,0.004449734464287758,9.789787292480469,1.1374397672625491e-06,0.00024249323178082705,-2.5804924916883465e-06,-12.754687309265137,61.12730026245117,0.001665573101490736,-0.5963894724845886,-0.03063339740037918,1.2327204785833601e-05
5245,122.42419662611792,0.48520153760910034,0.004998381249606609,9.82767391204834,4.291681534596137e-07,-0.0002780174545478076,-2.854510512406705e-06,-12.680277824401855,61.126522064208984,0.0016665267758071423,-0.5963911414146423,-0.030476301908493042,1.2573972526297439e-05
5246,122.4341966258944,4.26541805267334,0.004345940425992012,9.790173530578613,1.7410085320079816e-06,0.00023774016881361604,8.642796842650569e-07,-12.60544204711914,61.12574005126953,0.0016657257219776511,-0.5963906049728394,-0.03061973676085472,1.3571258023148403e-05
5247,122.44419662567088,0.4856153428554535,-0.03499915078282356,9.827291488647461,1.4277701438913937e-06,-0.0002801216905936599,1.3877443052479066e-06,-12.530557632446289,61.12495803833008,0.0016666793962940574,-0.596389889717102,-0.030462641268968582,1.4388827366929036e-05
5248,122.45419662544737,4.254997730255127,0.0442395880818367,9.790182113647461,-1.8054540973366784e-08,0.00023320828040596098,4.398064902488841e-06,-12.455248832702637,61.12417221069336,0.0016658782260492444,-0.5963873863220215,-0.0305924154818058,1.4377168554347008e-05
5249,122.46419662522385,0.4956088960170746,-0.034894995391368866,9.827286720275879,1.1224500440221163e-06,-0.0002826609124895185,3.806106178672053e-06,-12.379891395568848,61.12338638305664,0.0016668319003656507,-0.5963851809501648,-0.030428491532802582,1.5019139937066939e-05
5250,122.47419662500033,4.245408535003662,0.004137351177632809,9.790188789367676,5.007553909308626e-07,0.00022898575116414577,7.222829026432009e-06,-12.304108619689941,61.122596740722656,0.0016660308465361595,-0.5963809490203857,-0.030558263882994652,1.5303856343962252e-05
5251,122.48419662477681,0.4947715103626251,0.04510071501135826,9.827287673950195,6.424743332900107e-07,-0.0002837522479239851,6.50876745567075e-06,-12.228277206420898,61.12180709838867,0.0016669845208525658,-0.5963772535324097,-0.030401170253753662,1.5669969798182137e-05
5252,122.4941966245533,4.2358198165893555,-0.03596505895256996,9.79057788848877,8.008820486793411e-07,0.0002256405132357031,8.466696272080299e-06,-12.152023315429688,61.121009826660156,0.001666221534833312,-0.5963724255561829,-0.03052411414682865,1.6126246919156983e-05
5253,122.50419662432978,0.5051813125610352,0.00520706782117486,9.826899528503418,1.0919031865341822e-06,-0.00028495065635070205,8.535997949365992e-06,-12.075719833374023,61.12021255493164,0.0016671752091497183,-0.5963675379753113,-0.030367018654942513,1.6749238056945615e-05
