frame,timestamp,x,y,z,qw,qx,qy,qz,v_x (m/s),v_y (m/s),v_z (m/s),w_x (rad/s),w_y (rad/s),w_z (rad/s),acc x (m/s^2),acc y (m/s^2),acc z (m/s^2)
898,33370663371,0.0,-0.0925783157581,-3.5527136788e-15,1.0,0.0,0.0,0.0,0.0,-0.293999999762,-5.55111512313e-17,-0.002153,0.020744,0.075806,-0.013337,0.103464,0.093086
899,33380663371,-7.1054273576e-15,-0.0886583343381,-1.06581410364e-14,1.0,0.0,0.0,0.0,0.0,-0.391999989748,-8.32667268469e-17,-0.002153,0.020744,0.075806,-0.013337,0.103464,0.093086
900,33390663371,0.0,-0.0837583109969,0.0,1.0,0.0,0.0,0.0,0.0,-0.489999979734,-8.32667268469e-17,-0.002153,0.020744,0.075806,-0.013337,0.103464,0.093086
901,33400663370,0.0,-0.0778783053393,-7.1054273576e-15,1.0,0.0,0.0,0.0,0.0,-0.587999999523,-1.11022302463e-16,-0.002153,0.020744,0.075806,-0.013337,0.103464,0.093086
902,33410663370,0.0,-0.0713791266317,-3.5527136788e-15,1.0,0.0,0.0,0.0,0.0,-0.649936378002,-1.11022302463e-16,-0.002153,0.020744,0.075806,-0.013337,0.103464,0.093086
903,33420663370,0.0,-0.0654613092775,3.5527136788e-15,1.0,0.0,0.0,0.0,-2.22807352657e-06,-0.591778039932,-1.05905471171e-07,-0.002153,0.020744,0.075806,-0.013337,0.103464,0.093086
904,33430663370,0.0,-0.0600309349829,-3.5527136788e-15,1.0,0.0,0.0,0.0,-1.68716132976e-06,-0.543038070202,-8.15803887777e-08,-0.002153,0.020744,0.075806,-0.013337,0.103464,0.093086
905,33440663369,-7.1054273576e-15,-0.0550482176477,-3.5527136788e-15,1.0,0.0,0.0,0.0,-1.22830897453e-06,-0.498272538185,-8.26778503993e-08,-0.002153,0.020744,0.075806,-0.013337,0.103464,0.093086
906,33450663369,0.0,-0.0504766084487,-3.5527136788e-15,1.0,0.0,0.0,0.0,-1.34130516471e-06,-0.45716163516,-5.60660923243e-08,-0.002153,0.020744,0.075806,-0.013337,0.103464,0.093086
907,33460663369,7.1054273576e-15,-0.046282501542,-7.1054273576e-15,1.0,0.0,0.0,0.0,-1.03812817542e-06,-0.419409096241,-7.19993097087e-08,-0.002153,0.020744,0.075806,-0.013337,0.103464,0.093086
908,33470663369,0.0,-0.0424350328976,-3.5527136788e-15,1.0,0.0,0.0,0.0,-7.89871251072e-07,-0.38474470377,-3.92898230062e-08,-0.002153,0.020744,0.075806,-0.013337,0.103464,0.093086
909,33480663369,7.1054273576e-15,-0.0389058307046,0.0,1.0,0.0,0.0,0.0,-1.01942532638e-06,-0.352919489145,-1.39219010209e-08,-0.002153,0.020744,0.075806,-0.013337,0.103464,0.093086
910,33490663368,0.0,-0.0356687918538,-1.06581410364e-14,1.0,0.0,0.0,0.0,-5.93047616348e-07,-0.323702394962,-2.74244272291e-08,-0.002153,0.020744,0.075806,-0.013337,0.103464,0.093086
911,33500663368,-7.1054273576e-15,-0.032699966454,-7.1054273576e-15,1.0,0.0,0.0,0.0,-6.03267949373e-07,-0.296881467104,-2.66317866093e-08,-0.002153,0.020744,0.075806,-0.013337,0.103464,0.093086
912,33510663368,7.1054273576e-15,-0.0299773417646,-7.1054273576e-15,1.0,0.0,0.0,0.0,-2.37548093196e-07,-0.27226421237,-7.80831843628e-09,-0.002153,0.020744,0.075806,-0.013337,0.103464,0.093086
913,33520663368,0.0,-0.0274806205416,3.5527136788e-15,1.0,0.0,0.0,0.0,-3.93771131257e-07,-0.249670818448,-2.56884363087e-08,-0.002153,0.020744,0.075806,-0.013337,0.103464,0.093086
914,33530663367,0.0,-0.0251912676031,-7.1054273576e-15,1.0,0.0,0.0,0.0,-1.49749155298e-07,-0.228935420513,8.17592479829e-09,-0.002153,0.020744,0.075806,-0.013337,0.103464,0.093086
915,33540663367,0.0,-0.0230921931798,3.5527136788e-15,1.0,0.0,0.0,0.0,-1.26095457631e-07,-0.209907144308,7.04830767362e-09,-0.002153,0.020744,0.075806,-0.013337,0.103464,0.093086
916,33550663367,0.0,-0.0211677156622,-7.1054273576e-15,1.0,0.0,0.0,0.0,-2.21830632086e-07,-0.192448347807,-2.41515288046e-08,-0.002153,0.020744,0.075806,-0.013337,0.103464,0.093086
917,33560663367,0.0,-0.0194034181768,-7.1054273576e-15,1.0,0.0,0.0,0.0,-1.63079061366e-08,-0.17642852664,-4.35148053701e-09,-0.002153,0.020744,0.075806,-0.013337,0.103464,0.093086
918,33570663367,0.0,-0.0177861020202,-3.5527136788e-15,1.0,0.0,0.0,0.0,-3.46235751181e-08,-0.161732330918,-1.9918319466e-08,-0.002153,0.020744,0.075806,-0.013337,0.103464,0.093086
919,33580663366,0.0,-0.0163035966689,-1.06581410364e-14,1.0,0.0,0.0,0.0,7.22510478113e-08,-0.148250326514,-2.06967801231e-09,-0.002153,0.020744,0.075806,-0.013337,0.103464,0.093086
920,33590663366,-7.1054273576e-15,-0.0149447635049,-3.5527136788e-15,1.0,0.0,0.0,0.0,-2.14481303829e-07,-0.135881945491,-5.22384360768e-09,-0.002153,0.020744,0.075806,-0.013337,0.103464,0.093086
921,33600663366,1.42108547152e-14,-0.013699378469,-3.5527136788e-15,1.0,0.0,0.0,0.0,-3.64602108505e-08,-0.124538131058,-2.80596790941e-09,-0.002153,0.020744,0.075806,-0.013337,0.103464,0.093086
922,33610663366,-7.1054273576e-15,-0.0125580212334,-1.06581410364e-14,1.0,0.0,0.0,0.0,-8.61013802478e-08,-0.114134289324,2.81136678174e-08,-0.002153,0.020744,0.075806,-0.013337,0.103464,0.093086
923,33620663365,-7.1054273576e-15,-0.0115121077979,-7.1054273576e-15,1.0,0.0,0.0,0.0,-4.72937555784e-09,-0.104591935873,-1.76226144996e-08,-0.002153,0.020744,0.075806,-0.013337,0.103464,0.093086
924,33630663365,-7.1054273576e-15,-0.0105536651099,-3.5527136788e-15,1.0,0.0,0.0,0.0,-6.01920788768e-08,-0.095842666924,3.49843952419e-10,-0.002153,0.020744,0.075806,-0.013337,0.103464,0.093086
925,33640663365,7.1054273576e-15,-0.0096754838014,0.0,1.0,0.0,0.0,0.0,8.48869206038e-08,-0.0878185257316,-1.32906610231e-08,-0.002153,0.020744,0.075806,-0.013337,0.103464,0.093086
926,33650663365,1.42108547152e-14,-0.00887084903661,-3.5527136788e-15,1.0,0.0,0.0,0.0,-1.95524094693e-07,-0.0804626196623,3.08936804888e-08,-0.002153,0.020744,0.075806,-0.013337,0.103464,0.093086
927,33660663365,0.0,-0.00813365879003,-3.5527136788e-15,1.0,0.0,0.0,0.0,8.46480219252e-09,-0.0737174898386,4.11273473611e-10,-0.002153,0.020744,0.075806,-0.013337,0.103464,0.093086
928,33670663364,-7.1054273576e-15,-0.00745830556844,0.0,1.0,0.0,0.0,0.0,4.26538875331e-08,-0.0675338357687,-1.27596919836e-08,-0.002153,0.020744,0.075806,-0.013337,0.103464,0.093086
929,33680663364,-7.1054273576e-15,-0.00683963729535,-3.5527136788e-15,1.0,0.0,0.0,0.0,-8.04190278814e-08,-0.0618659444153,1.73155552015e-08,-0.002153,0.020744,0.075806,-0.013337,0.103464,0.093086
930,33690663364,7.1054273576e-15,-0.00627296476159,3.5527136788e-15,1.0,0.0,0.0,0.0,1.02463886265e-07,-0.0566691942513,-1.21369154865e-08,-0.002153,0.020744,0.075806,-0.013337,0.103464,0.093086
931,33700663364,0.0,-0.00575389864389,-1.06581410364e-14,1.0,0.0,0.0,0.0,-5.24995407147e-08,-0.0519069768488,1.9459891476e-08,-0.002153,0.020744,0.075806,-0.013337,0.103464,0.093086
932,33710663363,7.1054273576e-15,-0.00527847290505,-3.5527136788e-15,1.0,0.0,0.0,0.0,-5.87963135956e-08,-0.0475427061319,2.31227547179e-09,-0.002153,0.020744,0.075806,-0.013337,0.103464,0.093086
933,33720663363,-7.1054273576e-15,-0.00484306330327,-3.5527136788e-15,1.0,0.0,0.0,0.0,-1.03746359059e-07,-0.0435418821871,-1.22957768481e-08,-0.002153,0.020744,0.075806,-0.013337,0.103464,0.093086
934,33730663363,0.0,-0.00444431288634,-3.5527136788e-15,1.0,0.0,0.0,0.0,-1.48240914655e-07,-0.0398756302893,1.88878566051e-08,-0.002153,0.020744,0.075806,-0.013337,0.103464,0.093086
935,33740663363,1.42108547152e-14,-0.00407913199161,-3.5527136788e-15,1.0,0.0,0.0,0.0,3.10704315609e-08,-0.0365165993571,-1.14419593869e-08,-0.002153,0.020744,0.075806,-0.013337,0.103464,0.093086
936,33750663363,-7.1054273576e-15,-0.00374477368315,-3.5527136788e-15,1.0,0.0,0.0,0.0,-3.08569894969e-07,-0.0334376804531,2.52559061859e-09,-0.002153,0.020744,0.075806,-0.013337,0.103464,0.093086
937,33760663362,0.0,-0.00343860604334,-3.5527136788e-15,1.0,0.0,0.0,0.0,-1.18386054737e-07,-0.0306163597852,3.55019635391e-09,-0.002153,0.020744,0.075806,-0.013337,0.103464,0.093086
938,33770663362,-7.1054273576e-15,-0.00315826397855,-1.06581410364e-14,1.0,0.0,0.0,0.0,-1.07915285597e-08,-0.0280323699117,-1.05064401658e-08,-0.002153,0.020744,0.075806,-0.013337,0.103464,0.093086
939,33780663362,0.0,-0.00290161103476,-1.06581410364e-14,1.0,0.0,0.0,0.0,-1.2731365473e-07,-0.0256661698222,4.47251169086e-09,-0.002153,0.020744,0.075806,-0.013337,0.103464,0.093086
940,33790663362,0.0,-0.00266662577633,0.0,1.0,0.0,0.0,0.0,-9.37494988307e-08,-0.0234976485372,-1.13682947535e-08,-0.002153,0.020744,0.075806,-0.013337,0.103464,0.093086
941,33800663361,-7.1054273576e-15,-0.00245151494165,-3.5527136788e-15,1.0,0.0,0.0,0.0,-1.29504400093e-07,-0.0215108152479,-1.06184092664e-08,-0.002153,0.020744,0.075806,-0.013337,0.103464,0.093086
942,33810663361,0.0,-0.00225460052025,-3.5527136788e-15,1.0,0.0,0.0,0.0,-4.04784429975e-07,-0.0196911860257,2.31075425114e-09,-0.002153,0.020744,0.075806,-0.013337,0.103464,0.093086
943,33820663361,7.1054273576e-15,-0.00207435607445,-3.5527136788e-15,1.0,0.0,0.0,0.0,-1.25035384713e-07,-0.0180238336325,1.96779286164e-08,-0.002153,0.020744,0.075806,-0.013337,0.103464,0.093086
944,33830663361,7.1054273576e-15,-0.00190937041771,-3.5527136788e-15,1.0,0.0,0.0,0.0,-6.48402433967e-08,-0.0164974685758,-1.09051958609e-08,-0.002153,0.020744,0.075806,-0.013337,0.103464,0.093086
945,33840663361,0.0,-0.00175838463474,3.5527136788e-15,1.0,0.0,0.0,0.0,1.37810033607e-07,-0.015099982731,-6.71008937303e-09,-0.002153,0.020744,0.075806,-0.013337,0.103464,0.093086
946,33850663360,0.0,-0.00162017822732,-7.1054273576e-15,1.0,0.0,0.0,0.0,1.7123733187e-07,-0.0138196274638,-6.17467943616e-09,-0.002153,0.020744,0.075806,-0.013337,0.103464,0.093086
947,33860663360,0.0,-0.00149372091983,-3.5527136788e-15,1.0,0.0,0.0,0.0,9.36388602213e-08,-0.0126472944394,-7.13643544432e-09,-0.002153,0.020744,0.075806,-0.013337,0.103464,0.093086
948,33870663360,0.0,-0.00137798313517,-3.5527136788e-15,1.0,0.0,0.0,0.0,-8.51600816532e-08,-0.0115738008171,2.203764282e-08,-0.002153,0.020744,0.075806,-0.013337,0.103464,0.093086
949,33880663360,0.0,-0.00127208710183,-3.5527136788e-15,1.0,0.0,0.0,0.0,6.57383694147e-08,-0.0105905057862,6.81941614115e-09,-0.002153,0.020744,0.075806,-0.013337,0.103464,0.093086
950,33890663359,0.0,-0.00117515551392,-1.06581410364e-14,1.0,0.0,0.0,0.0,1.34553786779e-07,-0.009691352956,-6.37583586101e-09,-0.002153,0.020744,0.075806,-0.013337,0.103464,0.093086
951,33900663359,0.0,-0.00108646380249,-3.5527136788e-15,1.0,0.0,0.0,0.0,1.07410137673e-07,-0.0088676167652,9.8389403274e-09,-0.002153,0.020744,0.075806,-0.013337,0.103464,0.093086
952,33910663359,0.0,-0.00100532534998,3.5527136788e-15,1.0,0.0,0.0,0.0,-2.44308235864e-08,-0.00811326038092,-7.15229475819e-09,-0.002153,0.020744,0.075806,-0.013337,0.103464,0.093086
953,33920663359,0.0,-0.000931091257371,3.5527136788e-15,1.0,0.0,0.0,0.0,1.01446261169e-07,-0.00742205604911,1.01022523671e-08,-0.002153,0.020744,0.075806,-0.013337,0.103464,0.093086
954,33930663359,0.0,-0.000863189692609,-7.1054273576e-15,1.0,0.0,0.0,0.0,1.61312669889e-07,-0.00678966520354,-5.65185809308e-09,-0.002153,0.020744,0.075806,-0.013337,0.103464,0.093086
955,33940663358,-7.1054273576e-15,-0.000801086309373,-7.1054273576e-15,1.0,0.0,0.0,0.0,5.030689465e-08,-0.00621174788103,9.28430132644e-09,-0.002153,0.020744,0.075806,-0.013337,0.103464,0.093086
956,33950663358,0.0,-0.000744247459807,-3.5527136788e-15,1.0,0.0,0.0,0.0,1.71498740542e-07,-0.0056830025278,-5.89392135228e-09,-0.002153,0.020744,0.075806,-0.013337,0.103464,0.093086
957,33960663358,7.1054273576e-15,-0.00069225311745,-3.5527136788e-15,1.0,0.0,0.0,0.0,-2.68426560979e-08,-0.00519810663536,8.34006197393e-09,-0.002153,0.020744,0.075806,-0.013337,0.103464,0.093086
958,33970663358,0.0,-0.000644721905708,3.5527136788e-15,1.0,0.0,0.0,0.0,-3.47001050116e-09,-0.00475424760953,7.68457919477e-09,-0.002153,0.020744,0.075806,-0.013337,0.103464,0.093086
959,33980663357,-7.1054273576e-15,-0.000601234496575,-1.06581410364e-14,1.0,0.0,0.0,0.0,-9.15197944096e-08,-0.00434847828001,7.11998016057e-09,-0.002153,0.020744,0.075806,-0.013337,0.103464,0.093086
960,33990663357,0.0,-0.00056144723203,-3.5527136788e-15,1.0,0.0,0.0,0.0,7.48236033132e-08,-0.00397713668644,8.82887807221e-09,-0.002153,0.020744,0.075806,-0.013337,0.103464,0.093086
961,34000663357,0.0,-0.000525093055334,-3.5527136788e-15,1.0,0.0,0.0,0.0,9.12052087187e-08,-0.00363722792827,-6.07007022467e-09,-0.002153,0.020744,0.075806,-0.013337,0.103464,0.093086
962,34010663357,0.0,-0.000491829006936,-3.5527136788e-15,1.0,0.0,0.0,0.0,1.47006232964e-07,-0.00332678784616,-4.55913618013e-09,-0.002153,0.020744,0.075806,-0.013337,0.103464,0.093086
963,34020663357,-7.1054273576e-15,-0.000461387564432,-1.06581410364e-14,1.0,0.0,0.0,0.0,-1.77187438055e-08,-0.00304230675101,-6.14420558962e-09,-0.002153,0.020744,0.075806,-0.013337,0.103464,0.093086
964,34030663356,-7.1054273576e-15,-0.000433578505184,-3.5527136788e-15,1.0,0.0,0.0,0.0,6.12959425439e-08,-0.00278235436417,9.80099645886e-09,-0.002153,0.020744,0.075806,-0.013337,0.103464,0.093086
965,34040663356,7.1054273576e-15,-0.000408134423196,-3.5527136788e-15,1.0,0.0,0.0,0.0,-7.01478626297e-08,-0.00254434579983,-7.5805521864e-09,-0.002153,0.020744,0.075806,-0.013337,0.103464,0.093086
966,34050663356,0.0,-0.000384864746596,-3.5527136788e-15,1.0,0.0,0.0,0.0,1.43631254446e-07,-0.00232695578597,1.06662536579e-08,-0.002153,0.020744,0.075806,-0.013337,0.103464,0.093086
967,34060663356,0.0,-0.000363578787073,-3.5527136788e-15,1.0,0.0,0.0,0.0,1.14383190919e-07,-0.00212674145587,-5.67167912678e-09,-0.002153,0.020744,0.075806,-0.013337,0.103464,0.093086
968,34070663355,-7.1054273576e-15,-0.000344123807743,-3.5527136788e-15,1.0,0.0,0.0,0.0,8.51366976917e-08,-0.00194457045291,-5.07802155924e-09,-0.002153,0.020744,0.075806,-0.013337,0.103464,0.093086
969,34080663355,0.0,-0.000326347304508,-3.5527136788e-15,1.0,0.0,0.0,0.0,-3.75330921898e-09,-0.0017772387946,-5.85080828252e-09,-0.002153,0.020744,0.075806,-0.013337,0.103464,0.093086
970,34090663355,0.0,-0.000326347304508,-3.5527136788e-15,1.0,0.0,0.0,0.0,0.0,0.0,0.0,-0.002153,0.020744,0.075806,-0.013337,0.103464,0.093086
971,34100663355,0.0,-0.000326347304508,-3.5527136788e-15,1.0,0.0,0.0,0.0,0.0,0.0,0.0,-0.002153,0.020744,0.075806,-0.013337,0.103464,0.093086
972,34110663355,0.0,-0.000326347304508,-3.5527136788e-15,1.0,0.0,0.0,0.0,0.0,0.0,0.0,-0.002153,0.020744,0.075806,-0.013337,0.103464,0.093086
973,34120663354,0.0,-0.000326347304508,-3.5527136788e-15,1.0,0.0,0.0,0.0,0.0,0.0,0.0,-0.002153,0.020744,0.075806,-0.013337,0.103464,0.093086
974,34130663354,0.0,-0.000326347304508,-3.5527136788e-15,1.0,0.0,0.0,0.0,0.0,0.0,0.0,-0.002153,0.020744,0.075806,-0.013337,0.103464,0.093086
975,34140663354,0.0,-0.000326347304508,-3.5527136788e-15,1.0,0.0,0.0,0.0,0.0,0.0,0.0,-0.002153,0.020744,0.075806,-0.013337,0.103464,0.093086
976,34150663354,0.0,-0.000326347304508,-3.5527136788e-15,1.0,0.0,0.0,0.0,0.0,0.0,0.0,-0.002153,0.020744,0.075806,-0.013337,0.103464,0.093086
977,34160663353,0.0,-0.000326347304508,-3.5527136788e-15,1.0,0.0,0.0,0.0,0.0,0.0,0.0,-0.002153,0.020744,0.075806,-0.013337,0.103464,0.093086
978,34170663353,0.0,-0.000326347304508,-3.5527136788e-15,1.0,0.0,0.0,0.0,0.0,0.0,0.0,-0.002153,0.020744,0.075806,-0.013337,0.103464,0.093086
979,34180663353,0.0,-0.000326347304508,-3.5527136788e-15,1.0,0.0,0.0,0.0,0.0,0.0,0.0,-0.002153,0.020744,0.075806,-0.013337,0.103464,0.093086
980,34190663353,0.0,-0.000326347304508,-3.5527136788e-15,1.0,0.0,0.0,0.0,0.0,0.0,0.0,-0.002153,0.020744,0.075806,-0.013337,0.103464,0.093086
981,34200663352,0.0,-0.000326347304508,-3.5527136788e-15,1.0,0.0,0.0,0.0,0.0,0.0,0.0,-0.002153,0.020744,0.075806,-0.013337,0.103464,0.093086
982,34210663352,0.0,-0.000326347304508,-3.5527136788e-15,1.0,0.0,0.0,0.0,0.0,0.0,0.0,-0.002153,0.020744,0.075806,-0.013337,0.103464,0.093086
983,34220663352,0.0,-0.000326347304508,-3.5527136788e-15,1.0,0.0,0.0,0.0,0.0,0.0,0.0,-0.002153,0.020744,0.075806,-0.013337,0.103464,0.093086
984,34230663352,0.0,-0.000326347304508,-3.5527136788e-15,1.0,0.0,0.0,0.0,0.0,0.0,0.0,-0.002153,0.020744,0.075806,-0.013337,0.103464,0.093086
985,34240663352,0.0,-0.000326347304508,-3.5527136788e-15,1.0,0.0,0.0,0.0,0.0,0.0,0.0,-0.002153,0.020744,0.075806,-0.013337,0.103464,0.093086
986,34250663351,0.0,-0.000326347304508,-3.5527136788e-15,1.0,0.0,0.0,0.0,0.0,0.0,0.0,-0.002153,0.020744,0.075806,-0.013337,0.103464,0.093086
987,34260663351,0.0,-0.000326347304508,-3.5527136788e-15,1.0,0.0,0.0,0.0,0.0,0.0,0.0,-0.002153,0.020744,0.075806,-0.013337,0.103464,0.093086
988,34270663351,0.0,-0.000326347304508,-3.5527136788e-15,1.0,0.0,0.0,0.0,0.0,0.0,0.0,-0.002153,0.020744,0.075806,-0.013337,0.103464,0.093086
989,34280663351,0.0,-0.000326347304508,-3.5527136788e-15,1.0,0.0,0.0,0.0,0.0,0.0,0.0,-0.002153,0.020744,0.075806,-0.013337,0.103464,0.093086
990,34290663350,0.0,-0.000326347304508,-3.5527136788e-15,1.0,0.0,0.0,0.0,0.0,0.0,0.0,-0.002153,0.020744,0.075806,-0.013337,0.103464,0.093086
991,34300663350,0.0,-0.000326347304508,-3.5527136788e-15,1.0,0.0,0.0,0.0,0.0,0.0,0.0,-0.002153,0.020744,0.075806,-0.013337,0.103464,0.093086
992,34310663350,0.0,-0.000326347304508,-3.5527136788e-15,1.0,0.0,0.0,0.0,0.0,0.0,0.0,-0.002153,0.020744,0.075806,-0.013337,0.103464,0.093086
993,34320663350,0.0,-0.000326347304508,-3.5527136788e-15,1.0,0.0,0.0,0.0,0.0,0.0,0.0,-0.002153,0.020744,0.075806,-0.013337,0.103464,0.093086
994,34330663350,0.0,-0.000326347304508,-3.5527136788e-15,1.0,0.0,0.0,0.0,0.0,0.0,0.0,-0.002153,0.020744,0.075806,-0.013337,0.103464,0.093086
995,34340663349,0.0,-0.000326347304508,-3.5527136788e-15,1.0,0.0,0.0,0.0,0.0,0.0,0.0,-0.002153,0.020744,0.075806,-0.013337,0.103464,0.093086
996,34350663349,0.0,-0.000326347304508,-3.5527136788e-15,1.0,0.0,0.0,0.0,0.0,0.0,0.0,-0.002153,0.020744,0.075806,-0.013337,0.103464,0.093086
997,34360663349,0.0,-0.000326347304508,-3.5527136788e-15,1.0,0.0,0.0,0.0,0.0,0.0,0.0,-0.002153,0.020744,0.075806,-0.013337,0.103464,0.093086
998,34370663349,0.0,-0.000326347304508,-3.5527136788e-15,1.0,0.0,0.0,0.0,0.0,0.0,0.0,-0.002153,0.020744,0.075806,-0.013337,0.103464,0.093086
999,34380663348,1.42108547152e-14,-0.000264129601419,3.5527136788e-15,1.0,0.0,0.0,0.0,-4.82688335524e-07,-0.00622082687914,9.97110127712e-09,-0.002153,0.020744,0.075806,-0.013337,0.103464,0.093086
1000,34390663348,-7.1054273576e-15,-0.000211448641497,-1.06581410364e-14,1.0,0.0,0.0,0.0,-2.71232494242e-07,-0.00526638980955,1.13952882677e-08,-0.002153,0.020744,0.075806,-0.013337,0.103464,0.093086
1001,34400663348,7.1054273576e-15,-0.000167160062119,-3.5527136788e-15,1.0,0.0,0.0,0.0,-3.81435512509e-07,-0.00442978832871,-5.18786347258e-09,-0.002153,0.020744,0.075806,-0.013337,0.103464,0.093086
1002,34410663348,-7.1054273576e-15,-0.000130157452077,-3.5527136788e-15,1.0,0.0,0.0,0.0,-3.16306795867e-07,-0.00370200141333,-1.85938162651e-08,-0.002153,0.020744,0.075806,-0.013337,0.103464,0.093086
1003,34420663348,7.1054273576e-15,-9.94491856545e-05,-3.5527136788e-15,1.0,0.0,0.0,0.0,-2.56071274407e-07,-0.00306912418455,-2.09222883528e-09,-0.002153,0.020744,0.075806,-0.013337,0.103464,0.093086
1004,34430663347,-7.1054273576e-15,-7.42721604254e-05,-3.5527136788e-15,1.0,0.0,0.0,0.0,-1.94908253093e-07,-0.0025176142808,1.2623242895e-08,-0.002153,0.020744,0.075806,-0.013337,0.103464,0.093086
1005,34440663347,0.0,-5.38635067713e-05,-3.5527136788e-15,1.0,0.0,0.0,0.0,-5.78323877676e-08,-0.00203976617195,-2.29531904638e-09,-0.002153,0.020744,0.075806,-0.013337,0.103464,0.093086
1006,34450663347,0.0,-3.75747913495e-05,-7.1054273576e-15,1.0,0.0,0.0,0.0,-3.08920498071e-08,-0.00162791251205,-1.42567535587e-09,-0.002153,0.020744,0.075806,-0.013337,0.103464,0.093086
1007,34460663347,0.0,-2.48717842659e-05,-7.1054273576e-15,1.0,0.0,0.0,0.0,-4.13730276705e-08,-0.00127209664788,-1.76727998923e-09,-0.002153,0.020744,0.075806,-0.013337,0.103464,0.093086
1008,34470663346,0.0,-1.52206048405e-05,-3.5527136788e-15,1.0,0.0,0.0,0.0,-1.03639852256e-08,-0.000966682389844,-1.81229353757e-09,-0.002153,0.020744,0.075806,-0.013337,0.103464,0.093086
1009,34480663346,-7.1054273576e-15,-8.16339161602e-06,0.0,1.0,0.0,0.0,0.0,2.36522912367e-09,-0.000706367485691,-1.93820404171e-09,-0.002153,0.020744,0.075806,-0.013337,0.103464,0.093086
1010,34490663346,0.0,-3.31876799819e-06,-7.1054273576e-15,1.0,0.0,0.0,0.0,2.25857821334e-08,-0.000485382071929,-2.09801354078e-09,-0.002153,0.020744,0.075806,-0.013337,0.103464,0.093086
1011,34500663346,0.0,-3.4330878762e-07,-3.5527136788e-15,1.0,0.0,0.0,0.0,-1.0599626421e-07,-0.000296134938253,-3.57797169675e-09,-0.002153,0.020744,0.075806,-0.013337,0.103464,0.093086
1012,34510663346,0.0,1.0299263451e-06,-3.5527136788e-15,1.0,0.0,0.0,0.0,4.39152607612e-08,-0.000136613845825,-2.41354425337e-09,-0.002153,0.020744,0.075806,-0.013337,0.103464,0.093086
1013,34520663345,0.0,1.0299263451e-06,-3.5527136788e-15,1.0,0.0,0.0,0.0,-4.58705322615e-08,-3.09944152832e-06,-3.46206530111e-09,-0.002153,0.020744,0.075806,-0.013337,0.103464,0.093086
1014,34530663345,0.0,0.0,0.0,1.0,0.0,0.0,0.0,7.50802868765e-08,0.000106439591036,1.26496821906e-08,-0.002153,0.020744,0.075806,-0.013337,0.103464,0.093086
1015,34540663345,7.1054273576e-15,-1.98360066861e-06,-3.5527136788e-15,1.0,0.0,0.0,0.0,5.78982621846e-08,0.000197439192561,-3.92017573955e-09,-0.002153,0.020744,0.075806,-0.013337,0.103464,0.093086
1016,34550663345,0.0,-4.69211954979e-06,-1.06581410364e-14,1.0,0.0,0.0,0.0,1.1682304546e-07,0.000271062832326,1.25203856172e-08,-0.002153,0.020744,0.075806,-0.013337,0.103464,0.093086
1017,34560663344,0.0,-8.01088754443e-06,-1.06581410364e-14,1.0,0.0,0.0,0.0,3.67146490987e-08,0.000330533977831,-4.55285764642e-09,-0.002153,0.020744,0.075806,-0.013337,0.103464,0.093086
1018,34570663344,0.0,-1.17874005845e-05,-3.5527136788e-15,1.0,0.0,0.0,0.0,4.93214571406e-08,0.000377016054699,-3.77137077123e-09,-0.002153,0.020744,0.075806,-0.013337,0.103464,0.093086
1019,34580663344,-7.1054273576e-15,-1.59072224051e-05,-3.5527136788e-15,1.0,0.0,0.0,0.0,1.05057829103e-07,0.00041199682164,-3.5304807966e-09,-0.002153,0.020744,0.075806,-0.013337,0.103464,0.093086
1020,34590663344,7.1054273576e-15,-2.02942173964e-05,-1.06581410364e-14,1.0,0.0,0.0,0.0,-4.17364276473e-08,0.000439548486611,-5.11764186573e-09,-0.002153,0.020744,0.075806,-0.013337,0.103464,0.093086
1021,34600663344,0.0,-2.48717842659e-05,-7.1054273576e-15,1.0,0.0,0.0,0.0,1.4838931861e-07,0.000457258225651,-3.45561046433e-09,-0.002153,0.020744,0.075806,-0.013337,0.103464,0.093086
1022,34610663343,0.0,-2.95639038121e-05,-3.5527136788e-15,1.0,0.0,0.0,0.0,2.3312876074e-09,0.000468940736027,1.01282395804e-08,-0.002153,0.020744,0.075806,-0.013337,0.103464,0.093086
1023,34620663343,1.42108547152e-14,-3.42940911651e-05,-3.5527136788e-15,1.0,0.0,0.0,0.0,-5.75390686208e-08,0.000474262225907,-6.55522480736e-09,-0.002153,0.020744,0.075806,-0.013337,0.103464,0.093086
1024,34630663343,7.1054273576e-15,-3.90624627471e-05,-3.5527136788e-15,1.0,0.0,0.0,0.0,-8.36000157989e-09,0.000476350774989,-5.14353137851e-09,-0.002153,0.020744,0.075806,-0.013337,0.103464,0.093086
1025,34640663343,0.0,-4.37927665224e-05,0.0,1.0,0.0,0.0,0.0,3.60153018519e-09,0.000474157335702,-5.06998532035e-09,-0.002153,0.020744,0.075806,-0.013337,0.103464,0.093086
1026,34650663342,7.1054273576e-15,-4.84847696498e-05,-3.5527136788e-15,1.0,0.0,0.0,0.0,-8.19456786871e-08,0.000467681878945,-5.81344661291e-09,-0.002153,0.020744,0.075806,-0.013337,0.103464,0.093086
1027,34660663342,0.0,-5.30624529382e-05,-3.5527136788e-15,1.0,0.0,0.0,0.0,5.04148545133e-09,0.000459070201032,2.54826808544e-08,-0.002153,0.020744,0.075806,-0.013337,0.103464,0.093086
1028,34670663342,-1.42108547152e-14,-5.75255835464e-05,0.0,1.0,0.0,0.0,0.0,9.14136109031e-08,0.000448007573141,-5.87300963414e-09,-0.002153,0.020744,0.075806,-0.013337,0.103464,0.093086
1029,34680663342,0.0,-6.18743943051e-05,-3.5527136788e-15,1.0,0.0,0.0,0.0,2.07651638107e-07,0.000435028079664,-3.03856650941e-09,-0.002153,0.020744,0.075806,-0.013337,0.103464,0.093086
1030,34690663342,0.0,-6.6108652387e-05,3.5527136788e-15,1.0,0.0,0.0,0.0,4.30779714122e-08,0.000422096229158,1.07949125195e-08,-0.002153,0.020744,0.075806,-0.013337,0.103464,0.093086
1031,34700663341,7.1054273576e-15,-7.01522221789e-05,-3.5527136788e-15,1.0,0.0,0.0,0.0,4.19918997352e-08,0.000406217557611,-5.40468692012e-09,-0.002153,0.020744,0.075806,-0.013337,0.103464,0.093086
1032,34710663341,0.0,-7.40813557094e-05,-1.06581410364e-14,1.0,0.0,0.0,0.0,-5.61378712405e-08,0.000391368870623,-5.78796521816e-09,-0.002153,0.020744,0.075806,-0.013337,0.103464,0.093086
1033,34720663341,7.1054273576e-15,-7.78198009392e-05,-3.5527136788e-15,1.0,0.0,0.0,0.0,1.70560987556e-08,0.00037553787115,1.01193622371e-08,-0.002153,0.020744,0.075806,-0.013337,0.103464,0.093086
1034,34730663341,0.0,-8.1405625675e-05,0.0,1.0,0.0,0.0,0.0,1.88710713722e-09,0.000360431673471,9.03601105059e-09,-0.002153,0.020744,0.075806,-0.013337,0.103464,0.093086
1035,34740663340,0.0,-8.48388299381e-05,-3.5527136788e-15,1.0,0.0,0.0,0.0,-4.08067107882e-10,0.00034294129,-2.11585380327e-08,-0.002153,0.020744,0.075806,-0.013337,0.103464,0.093086
1036,34750663340,7.1054273576e-15,-8.81195301226e-05,-3.5527136788e-15,1.0,0.0,0.0,0.0,3.68194932321e-08,0.000326967245201,-3.91899224178e-09,-0.002153,0.020744,0.075806,-0.013337,0.103464,0.093086
1037,34760663340,0.0,-9.12094255945e-05,-3.5527136788e-15,1.0,0.0,0.0,0.0,7.43932337954e-09,0.000309915543767,-5.28673105288e-09,-0.002153,0.020744,0.075806,-0.013337,0.103464,0.093086
1038,34770663340,-7.1054273576e-15,-9.41467005795e-05,-3.5527136788e-15,1.0,0.0,0.0,0.0,-7.14930692425e-08,0.00029511449975,2.43094451236e-08,-0.002153,0.020744,0.075806,-0.013337,0.103464,0.093086
1039,34780663340,7.1054273576e-15,-9.69314714858e-05,-3.5527136788e-15,1.0,0.0,0.0,0.0,6.09534254181e-08,0.000279378873529,-6.58282939264e-09,-0.002153,0.020744,0.075806,-0.013337,0.103464,0.093086
1040,34790663339,7.1054273576e-15,-9.69314714858e-05,-3.5527136788e-15,1.0,0.0,0.0,0.0,0.0,0.0,0.0,-0.002153,0.020744,0.075806,-0.013337,0.103464,0.093086
1041,34800663339,7.1054273576e-15,-9.69314714858e-05,-3.5527136788e-15,1.0,0.0,0.0,0.0,3.69266857092e-08,6.46686530672e-05,-1.45827181441e-08,-0.002153,0.020744,0.075806,-0.013337,0.103464,0.093086
1042,34810663339,0.0,-9.84191428834e-05,-3.5527136788e-15,1.0,0.0,0.0,0.0,-3.0176821042e-08,8.58211496961e-05,1.43729605996e-09,-0.002153,0.020744,0.075806,-0.013337,0.103464,0.093086
1043,34820663339,7.1054273576e-15,-9.94491856545e-05,-3.5527136788e-15,1.0,0.0,0.0,0.0,-5.14705078558e-09,0.000102205274743,1.26114452215e-09,-0.002153,0.020744,0.075806,-0.013337,0.103464,0.093086
1044,34830663338,0.0,-0.000100593548268,-7.1054273576e-15,1.0,0.0,0.0,0.0,3.6264044212e-08,0.000115137096145,-1.32973871914e-08,-0.002153,0.020744,0.075806,-0.013337,0.103464,0.093086
1045,34840663338,0.0,-0.00010185234715,-3.5527136788e-15,1.0,0.0,0.0,0.0,7.08832414986e-09,0.000125131598907,-1.22400249935e-08,-0.002153,0.020744,0.075806,-0.013337,0.103464,0.093086
1046,34850663338,0.0,-0.000103187514469,-7.1054273576e-15,1.0,0.0,0.0,0.0,-3.49467477179e-08,0.000132112501888,3.12152548257e-09,-0.002153,0.020744,0.075806,-0.013337,0.103464,0.093086
1047,34860663338,7.1054273576e-15,-0.000104560866021,3.5527136788e-15,1.0,0.0,0.0,0.0,-4.40938947577e-08,0.000137891765917,1.7898662108e-08,-0.002153,0.020744,0.075806,-0.013337,0.103464,0.093086
1048,34870663338,0.0,-0.00010597228539,-3.5527136788e-15,1.0,0.0,0.0,0.0,6.38983834733e-08,0.000139274590765,-1.21759420324e-08,-0.002153,0.020744,0.075806,-0.013337,0.103464,0.093086
1049,34880663337,-7.1054273576e-15,-0.000107383704751,-3.5527136788e-15,1.0,0.0,0.0,0.0,-2.58582257828e-08,0.000141048425576,4.22832258098e-09,-0.002153,0.020744,0.075806,-0.013337,0.103464,0.093086
1050,34890663337,7.1054273576e-15,-0.00010879512411,-3.5527136788e-15,1.0,0.0,0.0,0.0,-6.91536357067e-08,0.000141229626024,3.18167292514e-09,-0.002153,0.020744,0.075806,-0.013337,0.103464,0.093086
1051,34900663337,0.0,-0.000110206543471,-3.5527136788e-15,1.0,0.0,0.0,0.0,4.94857381739e-08,0.00014015196939,4.63022420406e-09,-0.002153,0.020744,0.075806,-0.013337,0.103464,0.093086
1052,34910663337,-7.1054273576e-15,-0.00011157989502,3.5527136788e-15,1.0,0.0,0.0,0.0,4.36559446371e-08,0.000137481692946,-1.02724584394e-08,-0.002153,0.020744,0.075806,-0.013337,0.103464,0.093086
1053,34920663336,0.0,-0.000112953130159,-1.06581410364e-14,1.0,0.0,0.0,0.0,-2.93564923481e-08,0.000135650625452,5.46227596489e-09,-0.002153,0.020744,0.075806,-0.013337,0.103464,0.093086
1054,34930663336,0.0,-0.000114288297482,-3.5527136788e-15,1.0,0.0,0.0,0.0,-5.60001556238e-09,0.000133047098643,5.30453148076e-09,-0.002153,0.020744,0.075806,-0.013337,0.103464,0.093086
1055,34940663336,7.1054273576e-15,-0.000115547212776,-3.5527136788e-15,1.0,0.0,0.0,0.0,-1.70343128492e-09,0.000127763749333,5.56640422647e-09,-0.002153,0.020744,0.075806,-0.013337,0.103464,0.093086
1056,34950663336,-7.1054273576e-15,-0.000116806011651,-1.06581410364e-14,1.0,0.0,0.0,0.0,-1.06954023416e-09,0.000124273297843,5.96079008377e-09,-0.002153,0.020744,0.075806,-0.013337,0.103464,0.093086
1057,34960663336,0.0,-0.000117988558493,-7.1054273576e-15,1.0,0.0,0.0,0.0,3.62778571628e-08,0.000120077129395,-8.58465742935e-09,-0.002153,0.020744,0.075806,-0.013337,0.103464,0.093086
1058,34970663335,0.0,-0.000119133037511,-3.5527136788e-15,1.0,0.0,0.0,0.0,7.17264780903e-09,0.000114383692562,-7.79453745989e-09,-0.002153,0.020744,0.075806,-0.013337,0.103464,0.093086
1059,34980663335,0.0,-0.00012023921591,3.5527136788e-15,1.0,0.0,0.0,0.0,-3.37514656223e-08,0.000110149383545,6.98208424413e-09,-0.002153,0.020744,0.075806,-0.013337,0.103464,0.093086
1060,34990663335,7.1054273576e-15,-0.000121307326481,-3.5527136788e-15,1.0,0.0,0.0,0.0,-5.75697622907e-09,0.000105352402898,6.56652199285e-09,-0.002153,0.020744,0.075806,-0.013337,0.103464,0.093086
1061,35000663335,7.1054273576e-15,-0.000121307326481,-3.5527136788e-15,1.0,0.0,0.0,0.0,3.58489309349e-08,0.000100021359685,-7.92864973673e-09,-0.002153,0.020744,0.075806,-0.013337,0.103464,0.093086
1062,35010663334,0.0,-0.000123252859346,-7.1054273576e-15,1.0,0.0,0.0,0.0,-2.9866779272e-08,9.58824166446e-05,7.56982299067e-09,-0.002153,0.020744,0.075806,-0.013337,0.103464,0.093086
1063,35020663334,0.0,-0.000123252859346,-7.1054273576e-15,1.0,0.0,0.0,0.0,-6.95517030636e-08,9.05704509933e-05,6.24396534478e-09,-0.002153,0.020744,0.075806,-0.013337,0.103464,0.093086
1064,35030663334,-1.42108547152e-14,-0.000125045771714,-3.5527136788e-15,1.0,0.0,0.0,0.0,8.78921184722e-08,8.63265959197e-05,-7.58544338452e-09,-0.002153,0.020744,0.075806,-0.013337,0.103464,0.093086
1065,35040663334,-1.42108547152e-14,-0.000125045771714,-3.5527136788e-15,1.0,0.0,0.0,0.0,-2.2798202437e-08,8.11958307168e-05,7.79036746225e-09,-0.002153,0.020744,0.075806,-0.013337,0.103464,0.093086
1066,35050663333,0.0,-0.000126609811563,-3.5527136788e-15,1.0,0.0,0.0,0.0,-3.18645776431e-09,7.71999330027e-05,6.78766109986e-09,-0.002153,0.020744,0.075806,-0.013337,0.103464,0.093086
1067,35060663333,0.0,-0.000126609811563,-3.5527136788e-15,1.0,0.0,0.0,0.0,-2.83286087921e-08,7.37094887882e-05,-8.55794279885e-09,-0.002153,0.020744,0.075806,-0.013337,0.103464,0.093086
1068,35070663333,-7.1054273576e-15,-0.000128021230925,-3.5527136788e-15,1.0,0.0,0.0,0.0,5.80927128624e-08,6.91604582244e-05,-6.45372599804e-09,-0.002153,0.020744,0.075806,-0.013337,0.103464,0.093086
1069,35080663333,-7.1054273576e-15,-0.000128021230925,-3.5527136788e-15,1.0,0.0,0.0,0.0,-2.58513814799e-08,6.57558412058e-05,7.62419460899e-09,-0.002153,0.020744,0.075806,-0.013337,0.103464,0.093086
1070,35090663333,0.0,-0.0001292800298,-7.1054273576e-15,1.0,0.0,0.0,0.0,-3.98554655945e-09,6.22081715846e-05,6.92653623348e-09,-0.002153,0.020744,0.075806,-0.013337,0.103464,0.093086
1071,35100663332,0.0,-0.0001292800298,-7.1054273576e-15,1.0,0.0,0.0,0.0,-8.65951754747e-10,5.81073763897e-05,7.09280456591e-09,-0.002153,0.020744,0.075806,-0.013337,0.103464,0.093086
1072,35110663332,7.1054273576e-15,-0.000130386324603,-7.1054273576e-15,1.0,0.0,0.0,0.0,3.70422661433e-08,5.38921340194e-05,-7.7359878503e-09,-0.002153,0.020744,0.075806,-0.013337,0.103464,0.093086
1073,35120663332,7.1054273576e-15,-0.000130386324603,-7.1054273576e-15,1.0,0.0,0.0,0.0,7.92052556875e-09,5.17082189617e-05,-7.14930648015e-09,-0.002153,0.020744,0.075806,-0.013337,0.103464,0.093086
1074,35130663332,7.1054273576e-15,-0.000130386324603,-7.1054273576e-15,1.0,0.0,0.0,0.0,-3.45481687702e-08,4.71878047392e-05,7.4676371753e-09,-0.002153,0.020744,0.075806,-0.013337,0.103464,0.093086
1075,35140663331,-7.1054273576e-15,-0.000131835928187,-3.5527136788e-15,1.0,0.0,0.0,0.0,-5.59728707827e-09,4.41265110567e-05,6.4821965573e-09,-0.002153,0.020744,0.075806,-0.013337,0.103464,0.093086
1076,35150663331,-7.1054273576e-15,-0.000131835928187,-3.5527136788e-15,1.0,0.0,0.0,0.0,-3.09274245103e-10,4.21333315899e-05,6.33029051401e-09,-0.002153,0.020744,0.075806,-0.013337,0.103464,0.093086
1077,35160663331,-7.1054273576e-15,-0.000131835928187,-3.5527136788e-15,1.0,0.0,0.0,0.0,3.78753419739e-08,3.87096406484e-05,-8.63344595813e-09,-0.002153,0.020744,0.075806,-0.013337,0.103464,0.093086
1078,35170663331,0.0,-0.000133018475033,0.0,1.0,0.0,0.0,0.0,-5.81229215868e-08,3.67259963241e-05,-8.89119711189e-09,-0.002153,0.020744,0.075806,-0.013337,0.103464,0.093086
1079,35180663331,0.0,-0.000133018475033,0.0,1.0,0.0,0.0,0.0,1.78208789947e-08,3.39603429893e-05,6.75715083887e-09,-0.002153,0.020744,0.075806,-0.013337,0.103464,0.093086
1080,35190663330,0.0,-0.000133018475033,0.0,1.0,0.0,0.0,0.0,4.05827940142e-08,3.10134892061e-05,-9.38966149277e-09,-0.002153,0.020744,0.075806,-0.013337,0.103464,0.093086
1081,35200663330,0.0,-0.000133018475033,0.0,1.0,0.0,0.0,0.0,-5.61437012436e-08,2.95543668472e-05,-9.32231625227e-09,-0.002153,0.020744,0.075806,-0.013337,0.103464,0.093086
1082,35210663330,0.0,-0.000133018475033,0.0,1.0,0.0,0.0,0.0,0.0,0.0,0.0,-0.002153,0.020744,0.075806,-0.013337,0.103464,0.093086
1083,35220663330,0.0,-0.000134048401382,-3.5527136788e-15,1.0,0.0,0.0,0.0,-2.98606916971e-10,6.32286037217e-06,4.45067649403e-10,-0.002153,0.020744,0.075806,-0.013337,0.103464,0.093086
1084,35230663329,0.0,-0.000134048401382,-3.5527136788e-15,1.0,0.0,0.0,0.0,2.96208418904e-10,8.21113553684e-06,4.40117914336e-10,-0.002153,0.020744,0.075806,-0.013337,0.103464,0.093086
1085,35240663329,0.0,-0.000134048401382,-3.5527136788e-15,1.0,0.0,0.0,0.0,-2.60187177359e-10,1.00517272585e-05,7.58742513264e-10,-0.002153,0.020744,0.075806,-0.013337,0.103464,0.093086
1086,35250663329,0.0,-0.000134048401382,-3.5527136788e-15,1.0,0.0,0.0,0.0,-3.71973172264e-08,1.13582609629e-05,1.56449075917e-08,-0.002153,0.020744,0.075806,-0.013337,0.103464,0.093086
1087,35260663329,0.0,-0.000134048401382,-3.5527136788e-15,1.0,0.0,0.0,0.0,2.94175706017e-08,1.19400019685e-05,4.52936299579e-10,-0.002153,0.020744,0.075806,-0.013337,0.103464,0.093086
1088,35270663329,0.0,-0.000134048401382,-3.5527136788e-15,1.0,0.0,0.0,0.0,4.18531342916e-08,1.24168391267e-05,-1.35796129896e-08,-0.002153,0.020744,0.075806,-0.013337,0.103464,0.093086
1089,35280663328,0.0,-0.000134048401382,-3.5527136788e-15,1.0,0.0,0.0,0.0,-2.89254735719e-08,1.1930465007e-05,2.14857309722e-09,-0.002153,0.020744,0.075806,-0.013337,0.103464,0.093086
1090,35290663328,0.0,-0.000134048401382,-3.5527136788e-15,1.0,0.0,0.0,0.0,3.34617098474e-08,1.21784205476e-05,-1.33841036032e-08,-0.002153,0.020744,0.075806,-0.013337,0.103464,0.093086
1091,35300663328,0.0,-0.000134048401382,-3.5527136788e-15,1.0,0.0,0.0,0.0,-3.00245375229e-08,1.29413601826e-05,2.37959740801e-09,-0.002153,0.020744,0.075806,-0.013337,0.103464,0.093086
1092,35310663328,0.0,-0.000135078444153,-7.1054273576e-15,1.0,0.0,0.0,0.0,-4.23470467581e-08,1.36089320222e-05,1.64984275131e-08,-0.002153,0.020744,0.075806,-0.013337,0.103464,0.093086
1093,35320663327,0.0,-0.000135078444153,-7.1054273576e-15,1.0,0.0,0.0,0.0,2.82042993405e-08,1.35135651362e-05,1.02453101558e-09,-0.002153,0.020744,0.075806,-0.013337,0.103464,0.093086
1094,35330663327,0.0,-0.000135078444153,-7.1054273576e-15,1.0,0.0,0.0,0.0,4.00096045183e-09,1.28746032715e-05,1.68240665843e-09,-0.002153,0.020744,0.075806,-0.013337,0.103464,0.093086
1095,35340663327,0.0,-0.000135078444153,-7.1054273576e-15,1.0,0.0,0.0,0.0,7.42628292194e-10,1.21212005979e-05,1.75646075462e-09,-0.002153,0.020744,0.075806,-0.013337,0.103464,0.093086
1096,35350663327,0.0,-0.000135078444153,-7.1054273576e-15,1.0,0.0,0.0,0.0,3.72844120022e-08,1.16729734145e-05,-1.32437110167e-08,-0.002153,0.020744,0.075806,-0.013337,0.103464,0.093086
1097,35360663327,0.0,-0.000135078444153,-7.1054273576e-15,1.0,0.0,0.0,0.0,-2.95402138306e-08,1.17397303256e-05,2.47955989075e-09,-0.002153,0.020744,0.075806,-0.013337,0.103464,0.093086
1098,35370663326,0.0,-0.000135078444153,-7.1054273576e-15,1.0,0.0,0.0,0.0,-6.9909560807e-08,1.13964078992e-05,1.13549747383e-09,-0.002153,0.020744,0.075806,-0.013337,0.103464,0.093086
1099,35380663326,0.0,-0.000135078444153,-7.1054273576e-15,1.0,0.0,0.0,0.0,8.76168968489e-08,1.13773339763e-05,-1.24889822928e-08,-0.002153,0.020744,0.075806,-0.013337,0.103464,0.093086
1100,35390663326,0.0,-0.000135078444153,-7.1054273576e-15,1.0,0.0,0.0,0.0,1.51039820651e-08,1.00994111563e-05,-1.20849890095e-08,-0.002153,0.020744,0.075806,-0.013337,0.103464,0.093086
1101,35400663326,0.0,-0.000136146554723,-3.5527136788e-15,1.0,0.0,0.0,0.0,-7.01569575767e-08,1.08051299321e-05,1.76764469728e-08,-0.002153,0.020744,0.075806,-0.013337,0.103464,0.093086
1102,35410663325,0.0,-0.000136146554723,-3.5527136788e-15,1.0,0.0,0.0,0.0,2.45272566701e-08,9.76562478172e-06,1.6886678722e-09,-0.002153,0.020744,0.075806,-0.013337,0.103464,0.093086
1103,35420663325,0.0,-0.000136146554723,-3.5527136788e-15,1.0,0.0,0.0,0.0,3.16038262227e-09,9.67979394773e-06,2.8465971802e-09,-0.002153,0.020744,0.075806,-0.013337,0.103464,0.093086
1104,35430663325,0.0,-0.000136146554723,-3.5527136788e-15,1.0,0.0,0.0,0.0,4.55359250306e-10,9.48905926634e-06,2.91265411789e-09,-0.002153,0.020744,0.075806,-0.013337,0.103464,0.093086
1105,35440663325,0.0,-0.000136146554723,-3.5527136788e-15,1.0,0.0,0.0,0.0,3.70452930554e-08,8.19206252345e-06,-1.15397966738e-08,-0.002153,0.020744,0.075806,-0.013337,0.103464,0.093086
1106,35450663325,0.0,-0.000136146554723,-3.5527136788e-15,1.0,0.0,0.0,0.0,-9.40296231988e-08,8.15391558717e-06,3.18964099577e-09,-0.002153,0.020744,0.075806,-0.013337,0.103464,0.093086
1107,35460663324,0.0,-0.000136146554723,-3.5527136788e-15,1.0,0.0,0.0,0.0,8.36348448274e-08,7.44819635656e-06,-1.09793099057e-08,-0.002153,0.020744,0.075806,-0.013337,0.103464,0.093086
1108,35470663324,0.0,-0.000136146554723,-3.5527136788e-15,1.0,0.0,0.0,0.0,-5.96236162664e-08,7.59124759497e-06,1.90950313339e-08,-0.002153,0.020744,0.075806,-0.013337,0.103464,0.093086
1109,35480663324,0.0,-0.000136146554723,-3.5527136788e-15,1.0,0.0,0.0,0.0,6.27692031685e-08,6.4277646743e-06,-1.15916369836e-08,-0.002153,0.020744,0.075806,-0.013337,0.103464,0.093086
1110,35490663324,0.0,-0.000136146554723,-3.5527136788e-15,1.0,0.0,0.0,0.0,-6.27369800554e-08,6.43730163574e-06,1.94732994174e-08,-0.002153,0.020744,0.075806,-0.013337,0.103464,0.093086
1111,35500663323,0.0,-0.000136146554723,-3.5527136788e-15,1.0,0.0,0.0,0.0,6.24889793244e-08,5.1403044381e-06,-1.1143053591e-08,-0.002153,0.020744,0.075806,-0.013337,0.103464,0.093086
1112,35510663323,0.0,-0.000136146554723,-3.5527136788e-15,1.0,0.0,0.0,0.0,-2.5499529599e-08,5.45501688975e-06,5.12299358491e-09,-0.002153,0.020744,0.075806,-0.013337,0.103464,0.093086
1113,35520663323,0.0,-0.000136146554723,-3.5527136788e-15,1.0,0.0,0.0,0.0,-3.49701623215e-09,6.15119915892e-06,4.45954562167e-09,-0.002153,0.020744,0.075806,-0.013337,0.103464,0.093086
1114,35530663323,0.0,-0.000136146554723,-3.5527136788e-15,1.0,0.0,0.0,0.0,3.65746650743e-08,4.30107093052e-06,-1.00169978978e-08,-0.002153,0.020744,0.075806,-0.013337,0.103464,0.093086
1115,35540663323,0.0,-0.000136146554723,-3.5527136788e-15,1.0,0.0,0.0,0.0,-2.89622210659e-08,4.47273259851e-06,5.50107648323e-09,-0.002153,0.020744,0.075806,-0.013337,0.103464,0.093086
1116,35550663322,-7.1054273576e-15,-0.000137176481076,-3.5527136788e-15,1.0,0.0,0.0,0.0,-6.87762522489e-08,4.30107093052e-06,4.27382351731e-09,-0.002153,0.020744,0.075806,-0.013337,0.103464,0.093086
1117,35560663322,-7.1054273576e-15,-0.000137176481076,-3.5527136788e-15,1.0,0.0,0.0,0.0,5.05843580356e-08,4.11033624914e-06,5.62096857948e-09,-0.002153,0.020744,0.075806,-0.013337,0.103464,0.093086
1118,35570663322,-7.1054273576e-15,-0.000137176481076,-3.5527136788e-15,1.0,0.0,0.0,0.0,4.42766712183e-08,3.56674195245e-06,-9.15561315651e-09,-0.002153,0.020744,0.075806,-0.013337,0.103464,0.093086
1119,35580663322,-7.1054273576e-15,-0.000137176481076,-3.5527136788e-15,1.0,0.0,0.0,0.0,-2.80576024636e-08,3.60488888873e-06,6.16915185603e-09,-0.002153,0.020744,0.075806,-0.013337,0.103464,0.093086
1120,35590663321,-7.1054273576e-15,-0.000137176481076,-3.5527136788e-15,1.0,0.0,0.0,0.0,-3.06502698777e-08,3.72886643163e-06,-1.01456203438e-08,-0.002153,0.020744,0.075806,-0.013337,0.103464,0.093086
1121,35600663321,-7.1054273576e-15,-0.000137176481076,-3.5527136788e-15,1.0,0.0,0.0,0.0,2.15707327555e-08,2.99453722619e-06,6.58276100296e-09,-0.002153,0.020744,0.075806,-0.013337,0.103464,0.093086
1122,35610663321,-7.1054273576e-15,-0.000137176481076,-3.5527136788e-15,1.0,0.0,0.0,0.0,4.01674782324e-08,2.31742842516e-06,-9.05876440527e-09,-0.002153,0.020744,0.075806,-0.013337,0.103464,0.093086
1123,35620663321,-7.1054273576e-15,-0.000137176481076,-3.5527136788e-15,1.0,0.0,0.0,0.0,-2.84354246816e-08,2.22206108447e-06,6.31315399957e-09,-0.002153,0.020744,0.075806,-0.013337,0.103464,0.093086
1124,35630663321,-7.1054273576e-15,-0.000137176481076,-3.5527136788e-15,1.0,0.0,0.0,0.0,0.0,0.0,0.0,-0.002153,0.020744,0.075806,-0.013337,0.103464,0.093086
1125,35640663320,-7.1054273576e-15,-0.000137176481076,-3.5527136788e-15,1.0,0.0,0.0,0.0,-9.33696106542e-11,2.86102277869e-07,-1.02379132949e-10,-0.002153,0.020744,0.075806,-0.013337,0.103464,0.093086
1126,35650663320,-7.1054273576e-15,-0.000137176481076,-3.5527136788e-15,1.0,0.0,0.0,0.0,-1.1147042317e-10,5.72204555738e-07,-1.97199617746e-10,-0.002153,0.020744,0.075806,-0.013337,0.103464,0.093086
1127,35660663320,-7.1054273576e-15,-0.000137176481076,-3.5527136788e-15,1.0,0.0,0.0,0.0,-1.18701715124e-10,8.58306862028e-07,-2.91696999888e-10,-0.002153,0.020744,0.075806,-0.013337,0.103464,0.093086
1128,35670663320,-7.1054273576e-15,-0.000137176481076,-3.5527136788e-15,1.0,0.0,0.0,0.0,-1.24360313714e-10,1.14440911148e-06,-3.86168430566e-10,-0.002153,0.020744,0.075806,-0.013337,0.103464,0.093086
1129,35680663319,-7.1054273576e-15,-0.000137176481076,-3.5527136788e-15,1.0,0.0,0.0,0.0,-1.29795063586e-10,1.43051147461e-06,-4.80636364042e-10,-0.002153,0.020744,0.075806,-0.013337,0.103464,0.093086
1130,35690663319,-7.1054273576e-15,-0.000137176481076,-3.5527136788e-15,1.0,0.0,0.0,0.0,-1.35195563078e-10,1.71661372406e-06,-5.75103853428e-10,-0.002153,0.020744,0.075806,-0.013337,0.103464,0.093086
1131,35700663319,-7.1054273576e-15,-0.000137176481076,-3.5527136788e-15,1.0,0.0,0.0,0.0,-1.40592065767e-10,2.0027159735e-06,-6.69571342815e-10,-0.002153,0.020744,0.075806,-0.013337,0.103464,0.093086
1132,35710663319,-7.1054273576e-15,-0.000137176481076,-3.5527136788e-15,1.0,0.0,0.0,0.0,2.64779735915e-08,1.11579890927e-06,1.46890091202e-08,-0.002153,0.020744,0.075806,-0.013337,0.103464,0.093086
1133,35720663319,-7.1054273576e-15,-0.000137176481076,-3.5527136788e-15,1.0,0.0,0.0,0.0,-2.30766445952e-08,1.05857850485e-06,-1.95491445254e-09,-0.002153,0.020744,0.075806,-0.013337,0.103464,0.093086
1134,35730663318,-7.1054273576e-15,-0.000137176481076,-3.5527136788e-15,1.0,0.0,0.0,0.0,-4.63638905046e-09,1.30653381802e-06,-9.16067555145e-10,-0.002153,0.020744,0.075806,-0.013337,0.103464,0.093086
1135,35740663318,-7.1054273576e-15,-0.000137176481076,-3.5527136788e-15,1.0,0.0,0.0,0.0,-2.04079020349e-09,1.55448913119e-06,-9.67648294825e-10,-0.002153,0.020744,0.075806,-0.013337,0.103464,0.093086
1136,35750663318,-7.1054273576e-15,-0.000137176481076,-3.5527136788e-15,1.0,0.0,0.0,0.0,-1.20275012172e-09,1.81198117843e-06,-1.31344302101e-09,-0.002153,0.020744,0.075806,-0.013337,0.103464,0.093086
1137,35760663318,-7.1054273576e-15,-0.000137176481076,-3.5527136788e-15,1.0,0.0,0.0,0.0,-1.11612774578e-09,2.06947311199e-06,-1.65181823775e-09,-0.002153,0.020744,0.075806,-0.013337,0.103464,0.093086
1138,35770663317,-7.1054273576e-15,-0.000137176481076,-3.5527136788e-15,1.0,0.0,0.0,0.0,6.33557064589e-08,1.56402586526e-06,-1.11369513611e-09,-0.002153,0.020744,0.075806,-0.013337,0.103464,0.093086
1139,35780663317,-7.1054273576e-15,-0.000137176481076,-3.5527136788e-15,1.0,0.0,0.0,0.0,1.14176463839e-08,1.77383424216e-06,-1.63302238398e-09,-0.002153,0.020744,0.075806,-0.013337,0.103464,0.093086
1140,35790663317,-7.1054273576e-15,-0.000137176481076,-3.5527136788e-15,1.0,0.0,0.0,0.0,-3.32276890447e-08,2.41279599322e-06,-1.73787064739e-08,-0.002153,0.020744,0.075806,-0.013337,0.103464,0.093086
1141,35800663317,-7.1054273576e-15,-0.000137176481076,-3.5527136788e-15,1.0,0.0,0.0,0.0,-4.9963047033e-09,1.7642973944e-06,1.42355700561e-08,-0.002153,0.020744,0.075806,-0.013337,0.103464,0.093086
1142,35810663317,-7.1054273576e-15,-0.000137176481076,-3.5527136788e-15,1.0,0.0,0.0,0.0,-2.02862993071e-09,1.96456903723e-06,1.22017276283e-08,-0.002153,0.020744,0.075806,-0.013337,0.103464,0.093086
1143,35820663316,-7.1054273576e-15,-0.000137176481076,-3.5527136788e-15,1.0,0.0,0.0,0.0,-6.52256204603e-08,1.39236442465e-06,1.15352349894e-08,-0.002153,0.020744,0.075806,-0.013337,0.103464,0.093086
1144,35830663316,-7.1054273576e-15,-0.000137176481076,-3.5527136788e-15,1.0,0.0,0.0,0.0,-1.37467939254e-08,1.54495239713e-06,1.19821441658e-08,-0.002153,0.020744,0.075806,-0.013337,0.103464,0.093086
1145,35840663316,-7.1054273576e-15,-0.000137176481076,-3.5527136788e-15,1.0,0.0,0.0,0.0,3.10173895457e-08,2.11715700971e-06,-2.80223044768e-09,-0.002153,0.020744,0.075806,-0.013337,0.103464,0.093086
1146,35850663316,-7.1054273576e-15,-0.000137176481076,-3.5527136788e-15,1.0,0.0,0.0,0.0,2.92943469482e-09,7.82012932632e-07,-2.37712272089e-09,-0.002153,0.020744,0.075806,-0.013337,0.103464,0.093086
1147,35860663315,-7.1054273576e-15,-0.000137176481076,-3.5527136788e-15,1.0,0.0,0.0,0.0,-1.20099818979e-09,8.96453855148e-07,-2.72261613254e-09,-0.002153,0.020744,0.075806,-0.013337,0.103464,0.093086
1148,35870663315,-7.1054273576e-15,-0.000137176481076,-3.5527136788e-15,1.0,0.0,0.0,0.0,-1.83392778741e-09,1.01089472082e-06,-3.05056557792e-09,-0.002153,0.020744,0.075806,-0.013337,0.103464,0.093086
1149,35880663315,-7.1054273576e-15,-0.000137176481076,-3.5527136788e-15,1.0,0.0,0.0,0.0,-1.96223459703e-09,1.12533564334e-06,-3.37237993087e-09,-0.002153,0.020744,0.075806,-0.013337,0.103464,0.093086
1150,35890663315,-7.1054273576e-15,-0.000137176481076,-3.5527136788e-15,1.0,0.0,0.0,0.0,-2.01772798469e-09,1.23977656585e-06,-3.69319752558e-09,-0.002153,0.020744,0.075806,-0.013337,0.103464,0.093086
1151,35900663314,-7.1054273576e-15,-0.000137176481076,-3.5527136788e-15,1.0,0.0,0.0,0.0,2.55512517811e-08,1.66893005371e-06,1.15077236629e-08,-0.002153,0.020744,0.075806,-0.013337,0.103464,0.093086
1152,35910663314,-7.1054273576e-15,-0.000137176481076,-3.5527136788e-15,1.0,0.0,0.0,0.0,-2.37057111718e-08,1.47819514495e-06,-5.26355625752e-09,-0.002153,0.020744,0.075806,-0.013337,0.103464,0.093086
1153,35920663314,-7.1054273576e-15,-0.000137176481076,-3.5527136788e-15,1.0,0.0,0.0,0.0,2.27270309239e-08,1.90734863281e-06,1.08615152428e-08,-0.002153,0.020744,0.075806,-0.013337,0.103464,0.093086
1154,35930663314,-7.1054273576e-15,-0.000137176481076,-3.5527136788e-15,1.0,0.0,0.0,0.0,-2.37844464124e-08,1.71661372406e-06,-6.05819083788e-09,-0.002153,0.020744,0.075806,-0.013337,0.103464,0.093086
1155,35940663314,-7.1054273576e-15,-0.000137176481076,-3.5527136788e-15,1.0,0.0,0.0,0.0,2.2715148873e-08,2.14576721191e-06,1.00852490803e-08,-0.002153,0.020744,0.075806,-0.013337,0.103464,0.093086
1156,35950663313,-7.1054273576e-15,-0.000137176481076,-3.5527136788e-15,1.0,0.0,0.0,0.0,4.09214706565e-08,1.18255616144e-06,-6.23936191602e-09,-0.002153,0.020744,0.075806,-0.013337,0.103464,0.093086
1157,35960663313,-7.1054273576e-15,-0.000137176481076,-3.5527136788e-15,1.0,0.0,0.0,0.0,8.22273893419e-09,1.24931329992e-06,-6.06054362251e-09,-0.002153,0.020744,0.075806,-0.013337,0.103464,0.093086
1158,35970663313,-7.1054273576e-15,-0.000137176481076,-3.5527136788e-15,1.0,0.0,0.0,0.0,3.00831404232e-09,1.32560728616e-06,-6.34576879932e-09,-0.002153,0.020744,0.075806,-0.013337,0.103464,0.093086
1159,35980663313,-7.1054273576e-15,-0.000137176481076,-3.5527136788e-15,1.0,0.0,0.0,0.0,1.77301040516e-09,1.39236442465e-06,-6.37784003388e-09,-0.002153,0.020744,0.075806,-0.013337,0.103464,0.093086
1160,35990663312,-7.1054273576e-15,-0.000137176481076,-3.5527136788e-15,1.0,0.0,0.0,0.0,-3.55627385318e-08,1.88827505099e-06,-2.19890559094e-08,-0.002153,0.020744,0.075806,-0.013337,0.103464,0.093086
1161,36000663312,-7.1054273576e-15,-0.000137176481076,-3.5527136788e-15,1.0,0.0,0.0,0.0,3.04902094683e-08,1.54495239713e-06,-5.39413358425e-09,-0.002153,0.020744,0.075806,-0.013337,0.103464,0.093086
1162,36010663312,-7.1054273576e-15,-0.000137176481076,-3.5527136788e-15,1.0,0.0,0.0,0.0,-2.27912320128e-08,1.93595883502e-06,8.54372927961e-09,-0.002153,0.020744,0.075806,-0.013337,0.103464,0.093086
1163,36020663312,-7.1054273576e-15,-0.000137176481076,-3.5527136788e-15,1.0,0.0,0.0,0.0,-1.42071616693e-08,1.26838676806e-06,7.54720375085e-09,-0.002153,0.020744,0.075806,-0.013337,0.103464,0.093086
1164,36030663312,-7.1054273576e-15,-0.000137176481076,-3.5527136788e-15,1.0,0.0,0.0,0.0,-4.2911549869e-09,1.32560728616e-06,7.56369455957e-09,-0.002153,0.020744,0.075806,-0.013337,0.103464,0.093086
1165,36040663311,-7.1054273576e-15,-0.000137176481076,-3.5527136788e-15,1.0,0.0,0.0,0.0,-2.49409759512e-09,1.38282769058e-06,7.2876455981e-09,-0.002153,0.020744,0.075806,-0.013337,0.103464,0.093086
1166,36050663311,-7.1054273576e-15,-0.000137176481076,-3.5527136788e-15,1.0,0.0,0.0,0.0,0.0,0.0,0.0,-0.002153,0.020744,0.075806,-0.013337,0.103464,0.093086
1167,36060663311,-7.1054273576e-15,-0.000137176481076,-3.5527136788e-15,1.0,0.0,0.0,0.0,-1.58230772929e-09,4.76837129781e-08,-3.1705663095e-10,-0.002153,0.020744,0.075806,-0.013337,0.103464,0.093086
1168,36070663311,-7.1054273576e-15,-0.000137176481076,-3.5527136788e-15,1.0,0.0,0.0,0.0,-1.89977100717e-09,1.04904174236e-07,-6.01834526659e-10,-0.002153,0.020744,0.075806,-0.013337,0.103464,0.093086
1169,36080663310,-7.1054273576e-15,-0.000137176481076,-3.5527136788e-15,1.0,0.0,0.0,0.0,-2.03469685545e-09,1.62124635494e-07,-8.83736250845e-10,-0.002153,0.020744,0.075806,-0.013337,0.103464,0.093086
1170,36090663310,-7.1054273576e-15,-0.000137176481076,-3.5527136788e-15,1.0,0.0,0.0,0.0,-1.65792435336e-09,2.09808348473e-07,-1.40557154804e-09,-0.002153,0.020744,0.075806,-0.013337,0.103464,0.093086
1171,36100663310,-7.1054273576e-15,-0.000137176481076,-3.5527136788e-15,1.0,0.0,0.0,0.0,-1.66278035785e-09,2.5749204724e-07,-1.91444504694e-09,-0.002153,0.020744,0.075806,-0.013337,0.103464,0.093086
1172,36110663310,-7.1054273576e-15,-0.000137176481076,-3.5527136788e-15,1.0,0.0,0.0,0.0,-1.72268044274e-09,3.05175774429e-07,-2.42357556246e-09,-0.002153,0.020744,0.075806,-0.013337,0.103464,0.093086
1173,36120663310,-7.1054273576e-15,-0.000137176481076,-3.5527136788e-15,1.0,0.0,0.0,0.0,-1.19820453559e-09,3.43322739127e-07,-2.68428790307e-09,-0.002153,0.020744,0.075806,-0.013337,0.103464,0.093086
1174,36130663309,-7.1054273576e-15,-0.000137176481076,-3.5527136788e-15,1.0,0.0,0.0,0.0,-6.46827647e-10,3.81469703825e-07,-2.71803934915e-09,-0.002153,0.020744,0.075806,-0.013337,0.103464,0.093086
1175,36140663309,-7.1054273576e-15,-0.000137176481076,-3.5527136788e-15,1.0,0.0,0.0,0.0,-5.66894475806e-10,4.19616696945e-07,-2.77329914589e-09,-0.002153,0.020744,0.075806,-0.013337,0.103464,0.093086
1176,36150663309,-2.58240660855e-07,-0.000138244591657,2.47941874285e-05,0.999999999998,1.68088483465e-07,-1.97136324459e-06,8.34465312349e-07,4.56249690615e-05,8.48770127959e-07,0.00272794719785,-0.002153,0.020744,0.075806,-0.013337,0.103464,0.093086
1177,36160663309,5.46705258841e-06,-0.00011455535423,0.00277158482024,0.999999999398,1.5907080253e-07,-2.86342381448e-06,-3.45706921173e-05,-0.00281967478804,-8.10623134895e-07,0.271669507027,-0.002153,0.020744,0.075806,-0.013337,0.103464,0.093086
1178,36170663308,3.18925694387e-06,-7.61413248291e-05,0.00811814928916,0.999999995787,1.4375703733e-07,-3.29671529176e-06,-9.17315460994e-05,-0.00552991544828,-7.53402673692e-07,0.529967188835,-0.002153,0.020744,0.075806,-0.013337,0.103464,0.093086
1179,36180663308,6.02047553144e-06,-2.80761160028e-05,0.0159043981865,0.999999986687,1.3083163064e-07,-3.55315663264e-06,-0.000163137909844,-0.00805755704641,-4.00543200385e-07,0.772594153881,-0.002153,0.020744,0.075806,-0.013337,0.103464,0.093086
1180,36190663308,5.6955839085e-06,2.42615351489e-05,0.0258250530944,0.999999970871,1.22755142939e-07,-3.72221304273e-06,-0.000241339185694,-0.0102709159255,-3.7288664318e-06,0.985370635986,-0.002153,0.020744,0.075806,-0.013337,0.103464,0.093086
1181,36200663308,4.02226672946e-06,7.85065349156e-05,0.0377065547009,0.999999948175,1.17658105536e-07,-3.82729105169e-06,-0.000321924675066,-0.0123127186671,-2.46047966357e-06,1.18167626858,-0.002153,0.020744,0.075806,-0.013337,0.103464,0.093086
1182,36210663308,1.65510930117e-06,0.000126380939033,0.0507535023045,0.999999922708,1.08993708281e-07,-3.91207994377e-06,-0.000393152201245,-0.0135284177959,-1.64031973815e-06,1.29847311974,-0.002153,0.020744,0.075806,-0.013337,0.103464,0.093086
1183,36220663307,2.01225738294e-06,0.000176658621058,0.0657365421485,0.999999890501,1.0473266715e-07,-3.92456928844e-06,-0.000467956007078,-0.015544872731,-1.70707699021e-06,1.49209272861,-0.002153,0.020744,0.075806,-0.013337,0.103464,0.093086
1184,36230663307,5.450800586e-06,0.000223999028094,0.0822551130145,0.999999854986,1.09344272137e-07,-3.94226379141e-06,-0.000538527913965,-0.0171465519816,-2.10762027608e-06,1.64596152306,-0.002153,0.020744,0.075806,-0.013337,0.103464,0.093086
1185,36240663307,6.94402952917e-06,0.000266723684035,0.100059286324,0.999999818714,1.15276176882e-07,-3.96307982281e-06,-0.00060212605645,-0.0184882692993,-1.98364250559e-06,1.77506804466,-0.002153,0.020744,0.075806,-0.013337,0.103464,0.093086
1186,36250663307,1.04256225981e-05,0.000305442837995,0.119137658336,0.999999782309,1.19268398824e-07,-3.97661253154e-06,-0.00065982333893,-0.0198187045753,-3.8337707341e-06,1.90295243263,-0.002153,0.020744,0.075806,-0.013337,0.103464,0.093086
1187,36260663306,6.61688296333e-06,0.000336074852381,0.138915989331,0.999999751393,1.23738241542e-07,-3.98702368254e-06,-0.000705122879266,-0.0205616727471,-6.07490528648e-06,1.97409725189,-0.002153,0.020744,0.075806,-0.013337,0.103464,0.093086
1188,36270663306,9.54463716596e-06,0.000363998464305,0.159878918234,0.999999721147,1.17875047889e-07,-3.9641375762e-06,-0.000746786515134,-0.021800937131,-6.34193384053e-06,2.09287142754,-0.002153,0.020744,0.075806,-0.013337,0.103464,0.093086
1189,36280663306,9.33424836802e-06,0.000385551480573,0.181509422682,0.999999696686,1.21823190924e-07,-3.80445864989e-06,-0.000778853800141,-0.0224984418601,-4.99725320013e-06,2.16004562378,-0.002153,0.020744,0.075806,-0.013337,0.103464,0.093086
1190,36290663306,6.70131894509e-06,0.000404167221856,0.204105072653,0.999999674763,1.28663027399e-07,-3.87468728463e-06,-0.000806510290214,-0.0235077086836,-4.26292399469e-06,2.25710058212,-0.002153,0.020744,0.075806,-0.013337,0.103464,0.093086
1191,36300663306,5.24135359825e-06,0.000417861971069,0.227320656768,0.999999658163,1.30834444723e-07,-4.16389385521e-06,-0.000826835482017,-0.0241640973836,-3.77655010242e-06,2.31981396675,-0.002153,0.020744,0.075806,-0.013337,0.103464,0.093086
1192,36310663305,3.22612627457e-06,0.000428581261072,0.251322105358,0.999999644979,1.28108768038e-07,-3.95531407366e-06,-0.000842630700581,-0.0249870363623,-3.59535215511e-06,2.39856147766,-0.002153,0.020744,0.075806,-0.013337,0.103464,0.093086
1193,36320663305,2.58250969409e-06,0.000435829162598,0.275924415642,0.999999635883,1.21366596328e-07,-3.44348387366e-06,-0.000853359542948,-0.025614824146,-2.26020802119e-06,2.45913434029,-0.002153,0.020744,0.075806,-0.013337,0.103464,0.093086
1194,36330663305,2.59537583247e-06,0.000440444913693,0.301196248444,0.999999629958,1.19992559111e-07,-3.57091974751e-06,-0.000860273681354,-0.0263146348298,-1.87873831736e-06,2.52643156052,-0.002153,0.020744,0.075806,-0.013337,0.103464,0.093086
1195,36340663305,8.80490311772e-07,0.000442314194515,0.327000242383,0.999999627594,1.29781829339e-07,-3.88249719291e-06,-0.000863015513836,-0.0268778819591,-2.05993637836e-06,2.58015346527,-0.002153,0.020744,0.075806,-0.013337,0.103464,0.093086
1196,36350663304,3.78298196324e-07,0.000442314194512,0.353420355975,0.999999627594,1.29781829339e-07,-3.88249719291e-06,-0.000863015513836,-0.0275222249329,-1.0013579872e-06,2.64180135727,-0.002153,0.020744,0.075806,-0.013337,0.103464,0.093086
1197,36360663304,-1.19611157601e-06,0.00044006342068,0.380309691613,0.999999630471,1.21504049932e-07,-3.55583668665e-06,-0.000859677656236,-0.0280137062073,-1.18255616188e-06,2.68909263611,-0.002153,0.020744,0.075806,-0.013337,0.103464,0.093086
1198,36370663304,-1.02148194969e-06,0.000436515780166,0.407763651285,0.999999635017,1.212036978e-07,-3.50954265477e-06,-0.000854372857161,-0.0286023467779,-9.250640578e-07,2.74561214447,-0.002153,0.020744,0.075806,-0.013337,0.103464,0.093086
1199,36380663304,-1.44231795218e-06,0.000431213411499,0.435641059118,0.999999641759,1.29137372407e-07,-3.50174625902e-06,-0.000846445404457,-0.0290472842753,-1.23023983223e-06,2.78832125664,-0.002153,0.020744,0.075806,-0.013337,0.103464,0.093086
1200,36390663304,3.42772750628e-07,0.000425071688365,0.464039224345,0.999999649437,1.32031424127e-07,-3.44869247892e-06,-0.000837325901473,-0.0295904390514,-1.15394584599e-06,2.84040927887,-0.002153,0.020744,0.075806,-0.013337,0.103464,0.093086
1201,36400663303,-1.90466388972e-06,0.000417594914325,0.492824560345,0.999999658658,1.3712306246e-07,-3.38523724697e-06,-0.000826239456964,-0.0299954880029,-1.16348269374e-06,2.8794298172,-0.002153,0.020744,0.075806,-0.013337,0.103464,0.093086
1202,36410663303,-1.58860980548e-06,0.000409660395231,0.522096323327,0.999999668389,1.32414667675e-07,-3.32853573842e-06,-0.000814378121191,-0.0305015500635,-1.5354156635e-06,2.92787766457,-0.002153,0.020744,0.075806,-0.013337,0.103464,0.093086
1203,36420663303,-5.00711307438e-06,0.000400733901184,0.551726648403,0.999999679173,1.31882768761e-07,-3.26611587398e-06,-0.000801026689923,-0.030877487734,-1.34468075497e-06,2.96390128136,-0.002153,0.020744,0.075806,-0.013337,0.103464,0.093086
1204,36430663303,-5.50456159942e-06,0.000391616835259,0.581809070048,0.999999689966,1.30110744845e-07,-3.19849353048e-06,-0.000787436835454,-0.0313527211547,-4.67300396378e-07,3.00933456421,-0.002153,0.020744,0.075806,-0.013337,0.103464,0.093086
1205,36440663302,-5.70356576191e-06,0.000381736783314,0.612229113819,0.999999701359,1.24238807409e-07,-3.13034778965e-06,-0.000772833731583,-0.0317024923861,-7.91549667145e-07,3.04293203354,-0.002153,0.020744,0.075806,-0.013337,0.103464,0.093086
1206,36450663302,-2.72327453388e-06,0.000371894799173,0.643076459972,0.999999712584,1.18335171162e-07,-3.064802924e-06,-0.000758170940506,-0.0321498736739,-1.35421748904e-06,3.08585715294,-0.002153,0.020744,0.075806,-0.013337,0.103464,0.093086
1207,36460663302,7.73972395507e-07,0.000361557002176,0.674240448554,0.99999972408,1.2183332776e-07,-3.00342632564e-06,-0.000742852567062,-0.032477054745,-9.8228451928e-07,3.1174864769,-0.002153,0.020744,0.075806,-0.013337,0.103464,0.093086
1208,36470663302,-3.79430973396e-06,0.000351524329744,0.705812547878,0.999999735299,1.31420696325e-07,-2.95037642312e-06,-0.000727593815449,-0.0329002290964,2.77519211478e-06,3.15832018852,-0.002153,0.020744,0.075806,-0.013337,0.103464,0.093086
1209,36480663302,-3.87222846143e-06,0.000340995844454,0.737686071399,0.999999746497,1.3783994085e-07,-2.90408585385e-06,-0.000712037018575,-0.0332112126052,1.7261504579e-06,3.1883559227,-0.002153,0.020744,0.075806,-0.013337,0.103464,0.093086
1210,36490663301,-3.73558464162e-07,0.000330810551528,0.769948752397,0.999999757246,1.3996171716e-07,-2.85207049544e-06,-0.000696778201628,-0.0336197651923,7.05719002569e-07,3.22743463516,-0.002153,0.020744,0.075806,-0.013337,0.103464,0.093086
1211,36500663301,-3.68894352221e-06,0.00032035831828,0.802499387689,0.999999767924,1.43230946936e-07,-2.80421700255e-06,-0.000681281026451,-0.0339174643159,9.44137524606e-07,3.2561788559,-0.002153,0.020744,0.075806,-0.013337,0.103464,0.093086
1212,36510663301,-3.28868715371e-06,0.000310325645842,0.835425829742,0.999999777965,1.42566171368e-07,-2.76260264542e-06,-0.000666379811305,-0.0343083292246,1.02043145422e-06,3.29378795624,-0.002153,0.020744,0.075806,-0.013337,0.103464,0.093086
1213,36520663301,-5.78867215495e-06,0.00030014035292,0.868630729591,0.999999787978,1.37811623391e-07,-2.71474382002e-06,-0.000651180680946,-0.0345978848636,8.48770127959e-07,3.32149004936,-0.002153,0.020744,0.075806,-0.013337,0.103464,0.093086
1214,36530663300,-6.39337365271e-07,0.000290451105684,0.90220003246,0.999999797305,1.34215977998e-07,-2.65336210714e-06,-0.000636696754685,-0.0349796228111,1.32560728572e-06,3.357858181,-0.002153,0.020744,0.075806,-0.013337,0.103464,0.093086
1215,36540663300,-2.105410978e-06,0.000280570937321,0.93603821717,0.999999806422,1.32546920106e-07,-2.60602569757e-06,-0.000622212828283,-0.0352564118803,2.01225270713e-06,3.38472342491,-0.002153,0.020744,0.075806,-0.013337,0.103464,0.093086
1216,36550663300,-3.43195755192e-06,0.00027133943513,0.970229281969,0.999999814931,1.29753834843e-07,-2.55348724743e-06,-0.000608384549007,-0.0356259122491,5.91278080053e-07,3.42003893852,-0.002153,0.020744,0.075806,-0.013337,0.103464,0.093086
1217,36560663300,1.4901728207e-07,0.000261993380263,1.00468171882,0.999999823284,1.30831478484e-07,-2.49626982879e-06,-0.000594496647576,-0.0358997806907,8.58306861806e-07,3.44623661041,-0.002153,0.020744,0.075806,-0.013337,0.103464,0.093086
1218,36570663300,-7.47462865291e-06,0.000253219623119,1.03947738034,0.999999830959,1.33279362213e-07,-2.45101669205e-06,-0.000581443259376,-0.0362560488284,1.14440911081e-06,3.48065662384,-0.002153,0.020744,0.075806,-0.013337,0.103464,0.093086
1219,36580663299,-6.3762628173e-06,0.000244407681748,1.07453445364,0.999999838498,1.30996335168e-07,-2.38079366871e-06,-0.000568330249062,-0.0365289673209,1.36375422199e-06,3.50632762909,-0.002153,0.020744,0.075806,-0.013337,0.103464,0.093086
1220,36590663299,-1.12523291307e-06,0.000236167921685,1.10992537431,0.999999845401,1.30184778346e-07,-2.31837384906e-06,-0.00055605168699,-0.0368792079389,1.36375422199e-06,3.53998303413,-0.002153,0.020744,0.075806,-0.013337,0.103464,0.093086
1221,36600663299,-2.33069404487e-06,0.000227889977396,1.14556991886,0.999999852153,1.27509866943e-07,-2.2689567431e-06,-0.000543773124836,-0.0371383950114,1.5068053465e-06,3.56524777412,-0.002153,0.020744,0.075806,-0.013337,0.103464,0.093086
1222,36610663299,-3.15825214159e-06,0.000220451387577,1.18154445656,0.999999858279,1.28646324982e-07,-2.21590079846e-06,-0.000532388632977,-0.0374831184745,1.48773187836e-06,3.59824728966,-0.002153,0.020744,0.075806,-0.013337,0.103464,0.093086
1223,36620663298,-2.77359123402e-06,0.000212516752065,1.2177688831,0.999999864306,1.29534423521e-07,-2.16284468824e-06,-0.000520944551528,-0.0377436205745,4.45365912971e-06,3.62321138382,-0.002153,0.020744,0.075806,-0.013337,0.103464,0.093086
1224,36630663298,-1.9712979622e-06,0.000205612159323,1.2543194883,0.999999869746,1.31497092215e-07,-2.1139504045e-06,-0.000510394507893,-0.0380799435079,1.32560728616e-06,3.6556494236,-0.002153,0.020744,0.075806,-0.013337,0.103464,0.093086
1225,36640663298,6.3079028223e-08,0.000198440509848,1.2911180751,0.999999875105,1.33959087323e-07,-2.06921750667e-06,-0.000499784907188,-0.0383371524513,4.54902647018e-06,3.68040513992,-0.002153,0.020744,0.075806,-0.013337,0.103464,0.093086
1226,36650663298,-1.23980801447e-06,0.000191841158085,1.3282370791,0.999999879914,1.37208154116e-07,-2.03020669265e-06,-0.000490069344319,-0.0386688932776,3.79562379726e-06,3.71237015724,-0.002153,0.020744,0.075806,-0.013337,0.103464,0.093086
1227,36660663298,2.56347301786e-06,0.000185241689902,1.36559838269,0.999999884657,1.41137785015e-07,-1.99327672623e-06,-0.00048029419188,-0.0389246717095,3.67164602699e-06,3.73701381683,-0.002153,0.020744,0.075806,-0.013337,0.103464,0.093086
1228,36670663297,-7.85000324299e-07,0.000179214519452,1.40328006375,0.999999888911,1.42932677694e-07,-1.96310772427e-06,-0.000471353487778,-0.039251614362,2.98500049145e-06,3.76858210564,-0.002153,0.020744,0.075806,-0.013337,0.103464,0.093086
1229,36680663297,9.72694394363e-07,0.000173187232576,1.4412040444,0.999999893085,1.42127515146e-07,-1.92721585313e-06,-0.000462412783644,-0.039508678019,1.66893005282e-06,3.79307484627,-0.002153,0.020744,0.075806,-0.013337,0.103464,0.093086
1230,36690663297,3.28707414354e-06,0.00016765599139,1.47944085299,0.999999896828,1.38478222944e-07,-1.89340340473e-06,-0.000454246970851,-0.0398317053914,2.45094292883e-06,3.82417201996,-0.002153,0.020744,0.075806,-0.013337,0.103464,0.093086
1231,36700663297,3.05877654228e-06,0.00016208644956,1.51792178897,0.999999900557,1.38935227489e-07,-1.86479431524e-06,-0.000445961913953,-0.0400820858777,1.99317923877e-06,3.84835410118,-0.002153,0.020744,0.075806,-0.013337,0.103464,0.093086
1232,36710663296,3.48648731574e-06,0.000157051137645,1.55670601666,0.999999903852,1.39943105992e-07,-1.8393064638e-06,-0.000438511337924,-0.0403996519744,7.82012931966e-07,3.87893033028,-0.002153,0.020744,0.075806,-0.013337,0.103464,0.093086
1233,36720663296,1.41125006792e-06,0.000151939457279,1.59573055724,0.999999907143,1.45129395057e-07,-1.8122599354e-06,-0.000430941550305,-0.0406499393284,6.77108743519e-07,3.90292644501,-0.002153,0.020744,0.075806,-0.013337,0.103464,0.093086
1234,36730663296,3.82637624341e-06,0.000147323589772,1.63505652202,0.999999910099,1.49357110679e-07,-1.78105183007e-06,-0.00042402740998,-0.0409649088979,5.62667821224e-07,3.93303728104,-0.002153,0.020744,0.075806,-0.013337,0.103464,0.093086
1235,36740663296,-7.59359863878e-08,0.000142631586634,1.67462275997,0.999999913032,1.50049382142e-07,-1.75504366712e-06,-0.000417053680116,-0.0412119776011,1.15394584466e-06,3.95690536499,-0.002153,0.020744,0.075806,-0.013337,0.103464,0.093086
1236,36750663295,5.71709200869e-07,0.00013839721214,1.71448470038,0.999999915671,1.48951315282e-07,-1.72175276797e-06,-0.00041067597552,-0.0415236465633,1.35421748793e-06,3.98659968376,-0.002153,0.020744,0.075806,-0.013337,0.103464,0.093086
1237,36760663295,2.53089675084e-06,0.000134086585597,1.75458699341,0.99999991827,1.4471637988e-07,-1.68794046523e-06,-0.000404298270912,-0.0417709685862,8.9645385426e-07,4.01038599014,-0.002153,0.020744,0.075806,-0.013337,0.103464,0.093086
1238,36770663295,1.43092562155e-06,0.000130195636306,1.7949830022,0.999999920615,1.44514276434e-07,-1.66141197638e-06,-0.000398457002043,-0.0420750044286,2.28881830378e-07,4.03970336914,-0.002153,0.020744,0.075806,-0.013337,0.103464,0.093086
1239,36780663295,1.68222617702e-06,0.000126228318546,1.83561554912,0.999999922925,1.43847540157e-07,-1.63176241574e-06,-0.00039261576567,-0.0423229299486,1.00135798586e-06,4.06344795227,-0.002153,0.020744,0.075806,-0.013337,0.103464,0.093086
1240,36790663295,2.7285877735e-06,0.000122680678025,1.87653803704,0.999999924971,1.43197134927e-07,-1.60575399272e-06,-0.000387370554574,-0.0426244139671,7.62939407206e-07,4.09241390228,-0.002153,0.020744,0.075806,-0.013337,0.103464,0.093086
1241,36800663294,1.31173068496e-06,0.00011905666906,1.91769702337,0.999999927034,1.3959824724e-07,-1.57974443277e-06,-0.000382006131912,-0.0428709276021,1.33514401979e-06,4.1161570549,-0.002153,0.020744,0.075806,-0.013337,0.103464,0.093086
1242,36810663294,7.29663980792e-07,0.000115814269517,1.9591421362,0.999999928867,1.38606661704e-07,-1.54957477821e-06,-0.000377178177511,-0.0431695729494,1.09672544024e-06,4.14474582672,-0.002153,0.020744,0.075806,-0.013337,0.103464,0.093086
1243,36820663294,1.4790042826e-06,0.000112495385107,2.00082569441,0.999999930721,1.41737782955e-07,-1.52148724536e-06,-0.000372230979024,-0.0434179455042,8.58306861584e-07,4.16856241226,-0.002153,0.020744,0.075806,-0.013337,0.103464,0.093086
1244,36830663294,3.10286429084e-06,0.000109558110129,2.04279156463,0.999999932353,1.40613127975e-07,-1.49599893534e-06,-0.000367820248813,-0.0437104403973,6.38961750177e-07,4.19669675827,-0.002153,0.020744,0.075806,-0.013337,0.103464,0.093086
1245,36840663293,2.223776292e-06,0.000106506398879,2.08499774775,0.999999933987,1.36853793076e-07,-1.47363056047e-06,-0.000363349896563,-0.0439591147006,6.19888282039e-07,4.22069072723,-0.002153,0.020744,0.075806,-0.013337,0.103464,0.093086
1246,36850663293,6.1131570277e-06,0.000103797880001,2.12747865363,0.999999935452,1.40407393268e-07,-1.45126490148e-06,-0.000359296768505,-0.0442468971014,8.10623134395e-07,4.24827289581,-0.002153,0.020744,0.075806,-0.013337,0.103464,0.093086
1247,36860663293,3.64537003605e-06,0.00010105129331,2.17020364717,0.999999936921,1.4131324122e-07,-1.43826093835e-06,-0.000355184050917,-0.044496897608,8.2015986802e-07,4.2725520134,-0.002153,0.020744,0.075806,-0.013337,0.103464,0.093086
1248,36870663293,5.98578112232e-06,9.85336955672e-05,2.21319954899,0.999999938227,1.4348929267e-07,-1.43357984961e-06,-0.00035148855753,-0.044775351882,3.91006465428e-07,4.29949092865,-0.002153,0.020744,0.075806,-0.013337,0.103464,0.093086
1249,36880663293,5.80337955114e-06,9.60540492159e-05,2.25643767094,0.999999939519,1.46089135344e-07,-1.43358022919e-06,-0.000347793064138,-0.0450306609273,3.3378600417e-07,4.32407808304,-0.002153,0.020744,0.075806,-0.013337,0.103464,0.093086
1250,36890663292,6.69414431798e-06,9.37271397561e-05,2.29993903246,0.999999940736,1.4476987481e-07,-1.42733748387e-06,-0.000344276404344,-0.0453054644167,1.20162962958e-06,4.35039424896,-0.002153,0.020744,0.075806,-0.013337,0.103464,0.093086
1251,36900663292,4.96277309026e-06,9.14382981136e-05,2.34369215034,0.9999999419,1.46802509482e-07,-1.42161605554e-06,-0.000340878923594,-0.0455636493862,5.53131086711e-07,4.37521600723,-0.002153,0.020744,0.075806,-0.013337,0.103464,0.093086
1252,36910663292,4.36416222271e-06,8.93020769581e-05,2.38770278605,0.999999942972,1.47720258359e-07,-1.41121293501e-06,-0.000337719898476,-0.0458338782191,1.24931329903e-06,4.40101861954,-0.002153,0.020744,0.075806,-0.013337,0.103464,0.093086
1253,36920663292,4.97777037367e-06,8.72421078348e-05,2.43196331061,0.999999944014,1.47822587948e-07,-1.39612820749e-06,-0.000334620462883,-0.0460948981345,1.0776519721e-06,4.42597007751,-0.002153,0.020744,0.075806,-0.013337,0.103464,0.093086
1254,36930663291,2.9493778726e-06,8.52585071662e-05,2.47647749879,0.999999944987,1.48115590903e-07,-1.38312416303e-06,-0.000331699828374,-0.0463592596352,9.05990588329e-07,4.45139789581,-0.002153,0.020744,0.075806,-0.013337,0.103464,0.093086
1255,36940663291,2.15306904749e-06,8.3351158537e-05,2.52123966856,0.999999945932,1.43925489304e-07,-1.36491716551e-06,-0.000328838815906,-0.046621017158,5.62667821224e-07,4.47638559341,-0.002153,0.020744,0.075806,-0.013337,0.103464,0.093086
1256,36950663291,2.52924992594e-06,8.15200619364e-05,2.56625554167,0.999999946829,1.42476019593e-07,-1.34515065631e-06,-0.000326096982484,-0.0468838401139,8.29696659377e-07,4.50155973434,-0.002153,0.020744,0.075806,-0.013337,0.103464,0.093086
1257,36960663291,4.11764982999e-06,7.97653337905e-05,2.61152130364,0.999999947643,1.37770137409e-07,-1.32694358013e-06,-0.000323593604698,-0.0471435375512,8.67843595209e-07,4.52651977539,-0.002153,0.020744,0.075806,-0.013337,0.103464,0.093086
1258,36970663291,3.08391373949e-06,7.80868576804e-05,2.65703882196,0.99999994845,1.41603839376e-07,-1.31342060666e-06,-0.000321090194389,-0.0474027246237,2.57492046796e-07,4.55152654648,-0.002153,0.020744,0.075806,-0.013337,0.103464,0.093086
1259,36980663290,3.30212599664e-06,7.64846336061e-05,2.70280241465,0.999999949231,1.40407752924e-07,-1.29677512833e-06,-0.000318646406122,-0.0476628132164,5.6266782078e-07,4.57642650604,-0.002153,0.020744,0.075806,-0.013337,0.103464,0.093086
1260,36990663290,4.7325572865e-06,7.49207101727e-05,2.74881589618,0.999999949951,1.43643449801e-07,-1.28325197407e-06,-0.000316381418935,-0.0479217804968,8.67843595653e-07,4.60131692886,-0.002153,0.020744,0.075806,-0.013337,0.103464,0.093086
1261,37000663290,7.37520761618e-06,7.34711065853e-05,2.79507926657,0.999999950665,1.41176282165e-07,-1.26192478489e-06,-0.000314116464265,-0.0481820702553,1.14440911059e-06,4.62614679337,-0.002153,0.020744,0.075806,-0.013337,0.103464,0.093086
1262,37010663290,3.66069023983e-06,7.2059687227e-05,2.8415867246,0.999999951318,1.44035990024e-07,-1.24788137357e-06,-0.000312030278166,-0.0484388135374,1.20162962913e-06,4.65094900131,-0.002153,0.020744,0.075806,-0.013337,0.103464,0.093086
1263,37020663289,4.93315290129e-06,7.06863356719e-05,2.88834792571,0.999999951948,1.37703537018e-07,-1.22603288077e-06,-0.000310003746624,-0.0486989356577,9.15527322398e-07,4.67571020126,-0.002153,0.020744,0.075806,-0.013337,0.103464,0.093086
1264,37030663289,3.66293824072e-06,6.93893525714e-05,2.9353532542,0.999999952538,1.39432963508e-07,-1.20782795299e-06,-0.000308096394124,-0.0489557571709,6.008148139e-07,4.70044136047,-0.002153,0.020744,0.075806,-0.013337,0.103464,0.093086
1265,37040663289,7.43929765434e-06,6.81305537e-05,2.98260660402,0.999999953105,1.36214702295e-07,-1.18650062009e-06,-0.000306248631155,-0.0492138192058,2.0694731111e-06,4.72514009476,-0.002153,0.020744,0.075806,-0.013337,0.103464,0.093086
1266,37050663289,4.85848934062e-06,6.69478904456e-05,3.0301040415,0.999999953651,1.3884941269e-07,-1.17557806062e-06,-0.000304460490214,-0.0494684316218,8.10623133951e-07,4.74981069565,-0.002153,0.020744,0.075806,-0.013337,0.103464,0.093086
1267,37060663289,3.52962938877e-06,6.58035278285e-05,3.07784755334,0.999999954158,1.37206979056e-07,-1.15841243026e-06,-0.000302791560841,-0.0497265905142,8.67843595653e-07,4.77445316315,-0.002153,0.020744,0.075806,-0.013337,0.103464,0.093086
1268,37070663288,3.41298847673e-06,6.47354172578e-05,3.12584095402,0.999999954644,1.3380197289e-07,-1.13864553952e-06,-0.000301182253506,-0.0499837659299,1.53541566217e-06,4.79906988144,-0.002153,0.020744,0.075806,-0.013337,0.103464,0.093086
1269,37080663288,4.56816059824e-06,6.36673066694e-05,3.17407852182,0.999999955092,1.3035440799e-07,-1.11887866233e-06,-0.000299692125225,-0.0502400249243,8.48770127515e-07,4.8236618042,-0.002153,0.020744,0.075806,-0.013337,0.103464,0.093086
1270,37090663288,3.16079069762e-06,6.27136323565e-05,3.22256212425,0.999999955537,1.27353990353e-07,-1.10275296894e-06,-0.00029820202945,-0.0504951514304,9.63211049587e-07,4.84823036194,-0.002153,0.020744,0.075806,-0.013337,0.103464,0.093086
1271,37100663288,3.00536918019e-06,6.17599580437e-05,3.27129180103,0.999999955963,1.23862881729e-07,-1.0835062545e-06,-0.000296771490694,-0.0507517196238,6.48498541089e-07,4.87277698517,-0.002153,0.020744,0.075806,-0.013337,0.103464,0.093086
1272,37110663287,3.07270298094e-07,6.08444679528e-05,3.3202656052,0.999999956333,1.20336634324e-07,-1.06529985827e-06,-0.000295519818046,-0.0510072782636,1.15394584466e-06,4.89730215073,-0.002153,0.020744,0.075806,-0.013337,0.103464,0.093086
1273,37120663287,-1.13888020792e-06,6.00052298942e-05,3.36948548373,0.999999956738,1.26876830375e-07,-1.03981433786e-06,-0.000294148901315,-0.0512643307447,8.2015986802e-07,4.92180728912,-0.002153,0.020744,0.075806,-0.013337,0.103464,0.093086
1274,37130663287,2.50127270363e-06,5.91659918427e-05,3.4189495691,0.999999957088,1.29498687662e-07,-1.01224708082e-06,-0.000292956818189,-0.0515204407275,1.41143800558e-06,4.94629240036,-0.002153,0.020744,0.075806,-0.013337,0.103464,0.093086
1275,37140663287,3.57888357883e-06,5.84030058235e-05,3.4686596891,0.999999957436,1.34814867048e-07,-9.94043278191e-07,-0.000291764702549,-0.0517730265856,1.15394584466e-06,4.97075939178,-0.002153,0.020744,0.075806,-0.013337,0.103464,0.093086
1276,37150663287,5.92830749468e-06,5.76401362196e-05,3.51861397621,0.999999957766,1.40760834932e-07,-9.78440396981e-07,-0.000290632241453,-0.0520269051194,5.62667821224e-07,4.99520778656,-0.002153,0.020744,0.075806,-0.013337,0.103464,0.093086
1277,37160663286,5.73505407431e-06,5.69153344259e-05,3.56881239071,0.99999995806,1.43400566699e-07,-9.7063879112e-07,-0.000289618959414,-0.0522796474397,1.22070309727e-06,5.01963853836,-0.002153,0.020744,0.075806,-0.013337,0.103464,0.093086
1278,37170663286,6.81361368748e-06,-1.47246755695e-05,3.61925497232,0.999999958405,1.41612546856e-07,-9.61795579402e-07,-0.000288426843779,-0.0525349229574,0.00708442693576,5.04415512085,-0.002153,0.020744,0.075806,-0.013337,0.103464,0.093086
1279,37180663286,5.369360629e-06,-7.36999791116e-05,3.66993977406,0.999999958731,1.40487336209e-07,-9.57113759414e-07,-0.000287294382688,-0.0527855530381,0.00582385063171,5.0683221817,-0.002153,0.020744,0.075806,-0.013337,0.103464,0.093086
1280,37190663286,8.95181695171e-06,-0.000121841439974,3.72087450439,0.999999958731,1.40487336209e-07,-9.57113759414e-07,-0.000287294382688,-0.0530445277691,0.00475050928071,5.09310674667,-0.002153,0.020744,0.075806,-0.013337,0.103464,0.093086
1281,37200663285,6.27642889128e-06,-0.000160903902728,3.77204378615,0.999999959294,1.37689387614e-07,-9.40988080067e-07,-0.000285327408142,-0.0532917715609,0.0038385677617,5.11677455902,-0.002153,0.020744,0.075806,-0.013337,0.103464,0.093086
1282,37210663285,8.6078855901e-06,-0.000192070030607,3.82346490372,0.999999959294,1.37689387614e-07,-9.40988080067e-07,-0.000285327408142,-0.0535508394241,0.00306361191906,5.14194011688,-0.002153,0.020744,0.075806,-0.013337,0.103464,0.093086
1283,37220663285,8.49598826846e-06,-0.000216865562834,3.87512061246,0.999999959785,1.34274067809e-07,-1.00184425988e-06,-0.000283598889223,-0.0537905544043,0.00241073593497,5.165102005,-0.002153,0.020744,0.075806,-0.013337,0.103464,0.093086
1284,37230663285,3.41744991061e-06,-0.000237121596001,3.92688690169,0.999999960492,1.33620400522e-07,-8.33315599302e-07,-0.00028109547891,-0.0539109036326,0.00185786245856,5.17660808563,-0.002153,0.020744,0.075806,-0.013337,0.103464,0.093086
1285,37240663285,8.74941999029e-06,-0.000254135113217,3.97875248686,0.999999961772,1.32265088326e-07,-1.03773301063e-06,-0.000276505914937,-0.0540176965296,0.00139448163099,5.18665075302,-0.002153,0.020744,0.075806,-0.013337,0.103464,0.093086
1286,37250663284,7.92192030019e-06,-0.000273170415308,4.03011062561,0.99999996539,1.41132826703e-07,-1.14488419195e-06,-0.000263094890238,-0.0534947514534,0.00100610731169,5.13663339615,-0.002153,0.020744,0.075806,-0.013337,0.103464,0.093086
1287,37260663284,9.35946700054e-06,-0.000287818838846,4.08161756922,0.99999996838,1.3606233934e-07,-1.14019994935e-06,-0.00025147197398,-0.0536497011781,0.000682258571032,5.15131902695,-0.002153,0.020744,0.075806,-0.013337,0.103464,0.093086
1288,37270663284,9.56492998228e-06,-0.000301780644804,4.13287653123,0.999999971946,1.39267305577e-07,-1.1001472911e-06,-0.000236868849821,-0.0533945150673,0.000413360598031,5.12691926956,-0.002153,0.020744,0.075806,-0.013337,0.103464,0.093086
1289,37280663284,7.92297896623e-06,-0.000311622628942,4.18431286704,0.999999974685,1.42906401934e-07,-1.0590547268e-06,-0.000225007526607,-0.0535742230713,0.000193490981473,5.14423084259,-0.002153,0.020744,0.075806,-0.013337,0.103464,0.093086
1290,37290663283,9.16140461982e-06,-0.000321731553417,4.2354726523,0.99999997789,1.38570428132e-07,-1.02472191249e-06,-0.000210285174546,-0.0532897934318,1.23596191761e-05,5.11692047119,-0.002153,0.020744,0.075806,-0.013337,0.103464,0.093086
1291,37300663283,1.1929883982e-05,-0.000327529851351,4.28685181049,0.999999980124,1.39051391734e-07,-1.00183396456e-06,-0.000199377527541,-0.0535122230649,-0.000133724213812,5.13837337494,-0.002153,0.020744,0.075806,-0.013337,0.103464,0.093086
1292,37310663283,9.57233059751e-06,-0.000334281940013,4.33799057632,0.999999982719,1.40274187321e-07,-9.73744300914e-07,-0.000185906880592,-0.0532648414373,-0.000246734620306,5.11475229263,-0.002153,0.020744,0.075806,-0.013337,0.103464,0.093086
1293,37320663283,1.2320945288e-05,-0.000336837721992,4.38937164175,0.999999984383,1.42471652531e-07,-9.62300136742e-07,-0.000176727768745,-0.0535108633339,-0.000344314554241,5.13854646683,-0.002153,0.020744,0.075806,-0.013337,0.103464,0.093086
1294,37330663283,1.3499776955e-05,-0.000340690603483,4.44053714874,0.99999998638,1.40513823021e-07,-9.53455628394e-07,-0.000165045246485,-0.0532892942429,-0.000412607187173,5.11736345291,-0.002153,0.020744,0.075806,-0.013337,0.103464,0.093086
1295,37340663282,1.18776905964e-05,-0.000340576167222,4.49197157731,0.999999987516,1.42347378107e-07,-9.58136270768e-07,-0.000158011910306,-0.0535621792078,-0.000472202285892,5.14367485046,-0.002153,0.020744,0.075806,-0.013337,0.103464,0.093086
1296,37350663282,1.22420709161e-05,-0.000342140207067,4.54321528136,0.999999988986,1.4426162348e-07,-9.51893409484e-07,-0.00014841555793,-0.0533689521253,-0.000507554970683,5.12498903275,-0.002153,0.020744,0.075806,-0.013337,0.103464,0.093086
1297,37360663282,1.33816476051e-05,-0.000340003985908,4.59475083364,0.999999989725,1.44843799899e-07,-9.52933061238e-07,-0.000143349163836,-0.0536665394902,-0.000539426808246,5.15356016159,-0.002153,0.020744,0.075806,-0.013337,0.103464,0.093086
1298,37370663282,8.64033422232e-06,-0.000339736929156,4.6461184689,0.99999999079,1.41955472932e-07,-9.48250229615e-07,-0.000135719769801,-0.0534956678748,-0.000553989375477,5.13717412949,-0.002153,0.020744,0.075806,-0.013337,0.103464,0.093086
1299,37380663281,8.2900608902e-06,-0.000335998483937,4.69779706458,0.999999991213,1.40563973905e-07,-9.43568260081e-07,-0.000132560720149,-0.0538174249232,-0.000567550654524,5.16784524918,-0.002153,0.020744,0.075806,-0.013337,0.103464,0.093086
1300,37390663281,9.44950225801e-06,-0.000334434444085,4.74933070962,0.999999991971,1.43524297169e-07,-9.32644694918e-07,-0.000126719467108,-0.0536691956222,-0.000565452559386,5.15359115601,-0.002153,0.020744,0.075806,-0.013337,0.103464,0.093086
1301,37400663281,1.09868466183e-05,-0.000329513568431,4.80119434781,0.999999992143,1.4667098025e-07,-9.34205339032e-07,-0.000125348558456,-0.0540083162487,-0.000567007053179,5.1861743927,-0.002153,0.020744,0.075806,-0.013337,0.103464,0.093086
1302,37410663281,1.00207686344e-05,-0.000326957670044,4.85293206809,0.999999992658,1.45567630616e-07,-9.26922514022e-07,-0.000121176234855,-0.0538798756897,-0.000554199214094,5.17388057709,-0.002153,0.020744,0.075806,-0.013337,0.103464,0.093086
1303,37420663281,9.25381167605e-06,-0.000321235624146,4.90501694673,0.999999992658,1.45567630616e-07,-9.26922514022e-07,-0.000121176234855,-0.0542377084494,-0.000547609291972,5.20819616318,-0.002153,0.020744,0.075806,-0.013337,0.103464,0.093086
1304,37430663280,9.61914071951e-06,-0.000317955040373,4.95699311238,0.999999992972,1.43403617592e-07,-9.26921876476e-07,-0.000118553629126,-0.0541284494102,-0.000529232027476,5.19768476486,-0.002153,0.020744,0.075806,-0.013337,0.103464,0.093086
1305,37440663280,1.00048087859e-05,-0.000311660696752,5.0093336016,0.999999992809,1.415567219e-07,-9.31603188703e-07,-0.000119924537776,-0.054502081126,-0.000517883279827,5.23356437683,-0.002153,0.020744,0.075806,-0.013337,0.103464,0.093086
1306,37450663280,7.54935514635e-06,-0.000307960435752,5.06158059607,0.999999993,1.40908499091e-07,-9.26921547184e-07,-0.000118315214119,-0.054409250617,-0.000494852080011,5.22466564178,-0.002153,0.020744,0.075806,-0.013337,0.103464,0.093086
1307,37460663280,8.78967824747e-06,-0.000301361083988,5.11420530455,0.999999992708,1.3813082228e-07,-9.2744170388e-07,-0.000120759002501,-0.0547988079488,-0.000480585091283,5.2619433403,-0.002153,0.020744,0.075806,-0.013337,0.103464,0.093086
1308,37470663279,7.02996230473e-06,-0.000297393766239,5.16675177625,0.999999992708,1.3813082228e-07,-9.2744170388e-07,-0.000120759002501,-0.0547208450735,-0.000456523877802,5.2545003891,-0.002153,0.020744,0.075806,-0.013337,0.103464,0.093086
1309,37480663279,8.84683511515e-06,-0.000290565425534,5.21968740542,0.999999992388,1.37096550168e-07,-9.31603126753e-07,-0.000123381608232,-0.0551231056452,-0.000440931296908,5.29302215576,-0.002153,0.020744,0.075806,-0.013337,0.103464,0.093086
1310,37490663279,7.50475152245e-06,-0.000286483787932,5.27256005578,0.999999992388,1.37096550168e-07,-9.31603126753e-07,-0.000123381608232,-0.0550584830344,-0.00041683195741,5.2868847847,-0.002153,0.020744,0.075806,-0.013337,0.103464,0.093086
1311,37500663279,9.63993333869e-06,-0.00027965544723,5.32583139983,0.999999991872,1.35734584905e-07,-9.26922177791e-07,-0.000127494326052,-0.0554718859494,-0.000400695804275,5.32651042938,-0.002153,0.020744,0.075806,-0.013337,0.103464,0.093086
1312,37510663279,8.49697077854e-06,-0.000275535508997,5.37905120854,0.999999991872,1.35734584905e-07,-9.26922177791e-07,-0.000127494326052,-0.0554192438722,-0.000376377109206,5.32154369354,-0.002153,0.020744,0.075806,-0.013337,0.103464,0.093086
1313,37520663278,6.91745992754e-06,-0.000268707284707,5.43267920745,0.99999999119,1.39713297542e-07,-9.43568172374e-07,-0.000132739537502,-0.055842474103,-0.000361652375433,5.36213684082,-0.002153,0.020744,0.075806,-0.013337,0.103464,0.093086
1314,37530663278,5.77497173992e-06,-0.000264701782729,5.48626524696,0.999999991023,1.36757392966e-07,-9.34725423951e-07,-0.000133991234585,-0.0558022595942,-0.000338239653502,5.35821819305,-0.002153,0.020744,0.075806,-0.013337,0.103464,0.093086
1315,37540663278,4.09661189593e-06,-0.000257987994701,5.5402690129,0.999999990364,1.33269140334e-07,-9.34205449388e-07,-0.000138819205553,-0.0562346354127,-0.000323038082571,5.3996629715,-0.002153,0.020744,0.075806,-0.013337,0.103464,0.093086
1316,37550663278,2.75595139243e-06,-0.000254135113209,5.59424035567,0.999999990148,1.34239731553e-07,-9.3680653479e-07,-0.000140368923422,-0.0562037229538,-0.000300512299874,5.39667415619,-0.002153,0.020744,0.075806,-0.013337,0.103464,0.093086
1317,37560663277,8.44880600681e-06,-0.000247612013489,5.64863522605,0.999999989415,1.29987021313e-07,-9.41487939832e-07,-0.000145494923304,-0.0566442236304,-0.000288677198115,5.43885707855,-0.002153,0.020744,0.075806,-0.013337,0.103464,0.093086
1318,37570663277,6.75105586367e-06,-0.000243911752481,5.70300713004,0.999999989153,1.31763706113e-07,-9.34206352221e-07,-0.000147283064307,-0.0566195696592,-0.000267324445304,5.43670463562,-0.002153,0.020744,0.075806,-0.013337,0.103464,0.093086
1319,37580663277,8.21273645357e-06,-0.000237655593086,5.75780824366,0.999999988367,1.37790190313e-07,-9.3264751444e-07,-0.000152528275743,-0.0570663958788,-0.000256099709078,5.47952890396,-0.002153,0.020744,0.075806,-0.013337,0.103464,0.093086
1320,37590663277,9.81346969553e-06,-0.000234146136787,5.81259600655,0.999999988065,1.32154716448e-07,-9.48251373034e-07,-0.000154495234099,-0.05705088377,-0.000236358639087,5.4781126976,-0.002153,0.020744,0.075806,-0.013337,0.103464,0.093086
1321,37600663276,1.07194139645e-05,-0.000228080782108,5.86781675384,0.999999987231,1.35124358425e-07,-9.66457748164e-07,-0.000159800035058,-0.0575014390051,-0.000227260577959,5.52149105072,-0.002153,0.020744,0.075806,-0.013337,0.103464,0.093086
1322,37610663276,1.1704816913e-05,-0.000224838266146,5.92302987214,0.999999986906,1.34068821822e-07,-9.62296661244e-07,-0.000161826599194,-0.0574929788709,-0.000208425510211,5.52073287964,-0.002153,0.020744,0.075806,-0.013337,0.103464,0.093086
1323,37620663276,1.19159722232e-05,-0.000219078036025,5.97868360381,0.999999986023,1.33683672909e-07,-9.75821177973e-07,-0.000167191022189,-0.057948473841,-0.000199604022783,5.56457567215,-0.002153,0.020744,0.075806,-0.013337,0.103464,0.093086
1324,37630663276,1.59813472322e-05,-0.000216064392593,6.03433356072,0.999999985682,1.33531960878e-07,-1.00442959666e-06,-0.000169217570062,-0.0579461455345,-0.000183305732208,5.56439256668,-0.002153,0.020744,0.075806,-0.013337,0.103464,0.093086
1325,37640663276,1.54381195614e-05,-0.000210571219213,6.09042599851,0.999999984781,1.38633890923e-07,-1.0424020343e-06,-0.000174462781474,-0.0584037899971,-0.000176553716302,5.60862922668,-0.002153,0.020744,0.075806,-0.013337,0.103464,0.093086
1326,37650663275,1.86895175887e-05,-0.000207824748944,6.14652038328,0.999999984436,1.44978610561e-07,-1.0554071409e-06,-0.000176429739812,-0.0584072098136,-0.000160827636138,5.60895490646,-0.002153,0.020744,0.075806,-0.013337,0.103464,0.093086
1327,37660663275,2.10872093049e-05,-0.000202598515902,6.20306301039,0.999999983497,1.4713700891e-07,-1.08089557294e-06,-0.000181674951222,-0.0588708855212,-0.000154409412062,5.65351438522,-0.002153,0.020744,0.075806,-0.013337,0.103464,0.093086
1328,37670663275,2.34253070275e-05,-0.000200080801736,6.25961135924,0.999999983148,1.49086994472e-07,-1.11782676282e-06,-0.000183582287519,-0.0588791593909,-0.00014090538025,5.65428876877,-0.002153,0.020744,0.075806,-0.013337,0.103464,0.093086
1329,37680663275,2.48898337745e-05,-0.000195121741864,6.31660985769,0.999999982205,1.48903564368e-07,-1.16256026217e-06,-0.000188648681572,-0.0593438670039,-0.000136079790537,5.69911623001,-0.002153,0.020744,0.075806,-0.013337,0.103464,0.093086
1330,37690663274,2.62550371843e-05,-0.000192871084437,6.37361789236,0.999999981866,1.52474175175e-07,-1.18024626022e-06,-0.000190436822556,-0.0593551583588,-0.000123291014461,5.70028686523,-0.002153,0.020744,0.075806,-0.013337,0.103464,0.093086
1331,37700663274,2.67268049612e-05,-0.000188178964891,6.43107798387,0.999999980923,1.53746361642e-07,-1.21925839708e-06,-0.000195324415506,-0.0598223023117,-0.000120286938909,5.7453250885,-0.002153,0.020744,0.075806,-0.013337,0.103464,0.093086
1332,37710663274,3.08740104344e-05,-0.00018615718,6.48855146582,0.999999980596,1.55471773622e-07,-1.27439474623e-06,-0.000196993344917,-0.0598372891545,-0.000106992716611,5.74684619904,-0.002153,0.020744,0.075806,-0.013337,0.103464,0.093086
1333,37720663274,3.02934252119e-05,-0.000181732117202,6.54647887213,0.999999979657,1.6244755302e-07,-1.33993560752e-06,-0.000201702104244,-0.0603048987687,-0.00010522842058,5.79205513,-0.002153,0.020744,0.075806,-0.013337,0.103464,0.093086
1334,37730663274,3.3348548385e-05,-0.000179977389056,6.60442348338,0.999999979331,1.69192557076e-07,-1.37114615611e-06,-0.000203311427867,-0.0603240430355,-9.22393810479e-05,5.79388618469,-0.002153,0.020744,0.075806,-0.013337,0.103464,0.093086
1335,37740663273,3.54903712321e-05,-0.00017581938301,6.66282205871,0.9999999784,1.64969852001e-07,-1.41951986238e-06,-0.00020784138611,-0.0607952810824,-9.18579098665e-05,5.83922243118,-0.002153,0.020744,0.075806,-0.013337,0.103464,0.093086
1336,37750663273,3.7433547412e-05,-0.000174293527383,6.72123970649,0.999999978114,1.64643962186e-07,-1.4871393394e-06,-0.000209212286602,-0.0608156844974,-8.03947405079e-05,5.84132862091,-0.002153,0.020744,0.075806,-0.013337,0.103464,0.093086
1337,37760663273,3.84435586156e-05,-0.000170364393853,6.7801132256,0.999999977194,1.65622293768e-07,-1.5651625529e-06,-0.000213563427479,-0.0612859539688,-8.02803042474e-05,5.88676118851,-0.002153,0.020744,0.075806,-0.013337,0.103464,0.093086
1338,37770663273,4.30296842069e-05,-0.000169067410749,6.83900967138,0.999999976939,1.71172251318e-07,-1.6104168703e-06,-0.000214755526869,-0.0613096430898,-6.94942427804e-05,5.88911008835,-0.002153,0.020744,0.075806,-0.013337,0.103464,0.093086
1339,37780663272,4.28681544307e-05,-0.000165328965522,6.89836194876,0.999999976034,1.75864149132e-07,-1.68219911584e-06,-0.000218927850386,-0.0617791227996,-7.05909696994e-05,5.93460702896,-0.002153,0.020744,0.075806,-0.013337,0.103464,0.093086
1340,37790663272,4.6282739028e-05,-0.000164222670723,6.95773715281,0.999999975811,1.80489738322e-07,-1.7716658719e-06,-0.000219941132418,-0.0618054270744,-6.01577739889e-05,5.93717432022,-0.002153,0.020744,0.075806,-0.013337,0.103464,0.093086
1341,37800663272,4.87442939772e-05,-0.000160751282237,7.01757013544,0.999999974925,1.82556114059e-07,-1.87257588119e-06,-0.000223934638579,-0.062275826931,-6.15882891006e-05,5.98271036148,-0.002153,0.020744,0.075806,-0.013337,0.103464,0.093086
1342,37810663272,5.09277436009e-05,-0.000159835792147,7.07742981949,0.999999974925,1.82556114059e-07,-1.87257588119e-06,-0.000223934638579,-0.0623033307493,-5.20992252868e-05,5.98547172546,-0.002153,0.020744,0.075806,-0.013337,0.103464,0.093086
1343,37820663272,5.21780282554e-05,-0.000156593276188,7.13774537488,0.999999973873,1.83956767597e-07,-2.02862162701e-06,-0.000228583792085,-0.0627744719386,-5.32722478983e-05,6.03102397919,-0.002153,0.020744,0.075806,-0.013337,0.103464,0.093086
1344,37830663271,5.31303428986e-05,-0.000155868474394,7.19808953895,0.999999973873,1.83956767597e-07,-2.02862162701e-06,-0.000228583792085,-0.0628042444587,-4.44126126249e-05,6.03395938873,-0.002153,0.020744,0.075806,-0.013337,0.103464,0.093086
1345,37840663271,5.31494925653e-05,-0.000152816763148,7.25888957434,0.999999972896,1.92136032418e-07,-2.25228820538e-06,-0.000232815721333,-0.0632757097483,-4.6529767133e-05,6.0795083046,-0.002153,0.020744,0.075806,-0.013337,0.103464,0.093086
1346,37850663271,5.66652979401e-05,-0.000152244581841,7.31972016539,0.999999972896,1.92136032418e-07,-2.25228820538e-06,-0.000232815721333,-0.0633081495762,-3.81660465805e-05,6.08260011673,-0.002153,0.020744,0.075806,-0.013337,0.103464,0.093086
1347,37860663271,5.54135832971e-05,-0.000149345374666,7.38100849528,0.999999971986,1.94327920588e-07,-2.43018028595e-06,-0.000236690032155,-0.0637771636248,-4.10366046717e-05,6.12812709808,-0.002153,0.020744,0.075806,-0.013337,0.103464,0.093086
1348,37870663270,5.76783890267e-05,-0.00014896388166,7.44232547358,0.999999971986,1.94327920588e-07,-2.43018028595e-06,-0.000236690032155,-0.0638113617897,-3.3063886804e-05,6.13136053085,-0.002153,0.020744,0.075806,-0.013337,0.103464,0.093086
1349,37880663270,5.90100297728e-05,-0.000146217294969,7.50409832321,0.999999971089,2.02253965742e-07,-2.67413261079e-06,-0.000240445115124,-0.064280577004,-3.5095214117e-05,6.17685127258,-0.002153,0.020744,0.075806,-0.013337,0.103464,0.093086
1350,37890663270,5.99841065281e-05,-0.000145950354639,7.56590550325,0.999999971089,2.02253965742e-07,-2.67413261079e-06,-0.000240445115124,-0.0643156096339,-2.90870666513e-05,6.18021154404,-0.002153,0.020744,0.075806,-0.013337,0.103464,0.093086
1351,37900663270,6.00250182856e-05,-0.000143394456241,7.62816855462,0.999999970324,2.00573155973e-07,-2.87439004654e-06,-0.000243604172805,-0.0647849366069,-3.11565381712e-05,6.22565460205,-0.002153,0.020744,0.075806,-0.013337,0.103464,0.093086
1352,37910663270,5.97480953957e-05,-0.000143241835758,7.69046212191,0.999999970324,2.00573155973e-07,-2.87439004654e-06,-0.000243604172805,-0.064821459353,-2.49862659989e-05,6.22913217545,-0.002153,0.020744,0.075806,-0.013337,0.103464,0.093086
1353,37920663269,6.23326332203e-05,-0.000140838557858,7.75321350751,0.999999969549,1.99107724363e-07,-3.132384019e-06,-0.000246763214218,-0.0652909055352,-2.66933438993e-05,6.27451467514,-0.002153,0.020744,0.075806,-0.013337,0.103464,0.093086
1354,37930663269,6.0755049013e-05,-0.000140838557854,7.81599823017,0.999999969549,1.99107724363e-07,-3.132384019e-06,-0.000246763214218,-0.0653278529644,-2.12573995682e-05,6.27809762955,-0.002153,0.020744,0.075806,-0.013337,0.103464,0.093086
1355,37940663269,6.20687225421e-05,-0.000138511648409,7.87923791026,0.999999968868,2.02101728464e-07,-3.3347231117e-06,-0.000249505031403,-0.0657974630594,-2.33268729071e-05,6.32340908051,-0.002153,0.020744,0.075806,-0.013337,0.103464,0.093086
1356,37950663269,6.30148997374e-05,-0.00013862608467,7.94251287439,0.999999968868,2.02101728464e-07,-3.3347231117e-06,-0.000249505031403,-0.0658442825079,-1.80721272058e-05,6.3270907402,-0.002153,0.020744,0.075806,-0.013337,0.103464,0.093086
1357,37960663268,6.30577089424e-05,-0.000136489863511,8.00624084898,0.999999968255,1.89322479194e-07,-3.48400302824e-06,-0.000251948819737,-0.0663229748607,-2.05802916757e-05,6.37232303619,-0.002153,0.020744,0.075806,-0.013337,0.103464,0.093086
1358,37970663268,6.27230894708e-05,-0.000136718736027,8.07000506123,0.999999968255,1.89322479194e-07,-3.48400302824e-06,-0.000251948819737,-0.0663623586297,-1.58977509281e-05,6.37609481812,-0.002153,0.020744,0.075806,-0.013337,0.103464,0.093086
1359,37980663268,6.52896600783e-05,-0.000134620699104,8.1342232773,0.999999967681,1.72240335106e-07,-3.54641694045e-06,-0.000254213790757,-0.0668311417103,-1.83773045146e-05,6.42124080658,-0.002153,0.020744,0.075806,-0.013337,0.103464,0.093086
1360,37990663268,6.36643116394e-05,-0.000135002075698,8.19847769129,0.999999967681,1.72240335106e-07,-3.54641694045e-06,-0.000254213790757,-0.0668700858951,-1.30271910184e-05,6.42509746552,-0.002153,0.020744,0.075806,-0.013337,0.103464,0.093086
1361,38000663268,6.49699502588e-05,-0.000133018475026,8.26318324822,0.999999967179,1.69250760351e-07,-3.66136934848e-06,-0.00025618074906,-0.0673382729292,-1.66702266142e-05,6.47014856339,-0.002153,0.020744,0.075806,-0.013337,0.103464,0.093086
1362,38010663267,6.20538728526e-05,-0.000133438152261,8.32792786396,0.999999967179,1.69250760351e-07,-3.66136934848e-06,-0.00025618074906,-0.0673789381981,-1.14631648116e-05,6.47408390045,-0.002153,0.020744,0.075806,-0.013337,0.103464,0.093086
1363,38020663267,6.20687824906e-05,-0.000131568871435,8.39312362264,0.999999966688,1.69860266463e-07,-3.73575107288e-06,-0.000258088101574,-0.0678458288312,-1.45149224422e-05,6.51903629303,-0.002153,0.020744,0.075806,-0.013337,0.103464,0.093086
1364,38030663267,6.16863988085e-05,-0.000132064800709,8.45835752622,0.999999966688,1.69860266463e-07,-3.73575107288e-06,-0.000258088101574,-0.0678877681494,-9.56535313978e-06,6.52304553986,-0.002153,0.020744,0.075806,-0.013337,0.103464,0.093086
1365,38040663267,6.04403764868e-05,-0.000130271888338,8.52404062577,0.999999966302,1.64103033107e-07,-3.84342058701e-06,-0.000259578213629,-0.0683538392186,-1.26838676815e-05,6.56789493561,-0.002153,0.020744,0.075806,-0.013337,0.103464,0.093086
1366,38050663266,5.8767263809e-05,-0.000130844069645,8.5897647311,0.999999966302,1.64103033107e-07,-3.84342058701e-06,-0.000259578213629,-0.0683971643448,-8.45909107827e-06,6.57197189331,-0.002153,0.020744,0.075806,-0.013337,0.103464,0.093086
1367,38060663266,6.00648675402e-05,-0.000129165593535,8.65593616488,0.999999965945,1.60466645582e-07,-3.90687798779e-06,-0.000260949114119,-0.0688631162047,-1.09481807162e-05,6.61671304703,-0.002153,0.020744,0.075806,-0.013337,0.103464,0.093086
1368,38070663266,5.71208905598e-05,-0.000129775959067,8.7221485647,0.999999965945,1.60466645582e-07,-3.90687798779e-06,-0.000260949114119,-0.0689058825374,-6.94274876878e-06,6.62085533142,-0.002153,0.020744,0.075806,-0.013337,0.103464,0.093086
1369,38080663266,5.7147629974e-05,-0.000128135667186,8.78880829298,0.999999965602,1.59964665125e-07,-3.9890615407e-06,-0.000262260425065,-0.0693712756038,-9.66072093522e-06,6.66548442841,-0.002153,0.020744,0.075806,-0.013337,0.103464,0.093086
1370,38090663266,5.67472790607e-05,-0.000128860468976,8.85550902703,0.999999965602,1.59964665125e-07,-3.9890615407e-06,-0.000262260425065,-0.0694153308868,-4.59670991537e-06,6.6696896553,-0.002153,0.020744,0.075806,-0.013337,0.103464,0.093086
1371,38100663265,5.55130865081e-05,-0.000127296429127,8.92265609618,0.99999996532,1.5752974164e-07,-4.03587444153e-06,-0.00026333329664,-0.0698784589767,-8.82148742765e-06,6.7142033577,-0.002153,0.020744,0.075806,-0.013337,0.103464,0.093086
1372,38110663265,5.38518035995e-05,-0.00012805941515,8.98984417111,0.999999965586,1.51939492155e-07,-4.06604143716e-06,-0.000262320030868,-0.0699227452278,-4.36782829816e-06,6.71846914291,-0.002153,0.020744,0.075806,-0.013337,0.103464,0.093086
1373,38120663265,5.13666114017e-05,-0.00012657162733,9.05747762751,0.999999965099,1.49978199693e-07,-4.09412921809e-06,-0.00026416776136,-0.0703856423497,-8.38279720616e-06,6.76286506653,-0.002153,0.020744,0.075806,-0.013337,0.103464,0.093086
1374,38130663265,5.22688192319e-05,-0.000127372681167,9.12515212941,0.999999965351,1.47016999796e-07,-4.10505141929e-06,-0.000263214101363,-0.0704318434,-3.81469726696e-06,6.76718616486,-0.002153,0.020744,0.075806,-0.013337,0.103464,0.093086
1375,38140663264,4.85425597176e-05,-0.000125923193991,9.19327101945,0.999999964878,1.47439700171e-07,-4.12377713793e-06,-0.000265002226064,-0.0708923339844,-8.04901083074e-06,6.81146144867,-0.002153,0.020744,0.075806,-0.013337,0.103464,0.093086
1376,38150663264,4.81838355668e-05,-0.000126762432046,9.26143286223,0.999999965162,1.46617977204e-07,-4.13365958968e-06,-0.000263929354494,-0.0709396228194,-3.59535215599e-06,6.81583929062,-0.002153,0.020744,0.075806,-0.013337,0.103464,0.093086
1377,38160663264,4.70210667771e-05,-0.000125350896273,9.33003817924,0.999999964704,1.41879234583e-07,-4.14510184765e-06,-0.00026565788969,-0.0713997930288,-6.43730163663e-06,6.85999298096,-0.002153,0.020744,0.075806,-0.013337,0.103464,0.093086
1378,38170663264,4.54312076528e-05,-0.000126266502782,9.39868450203,0.999999964989,1.39957601508e-07,-4.14302059604e-06,-0.000264585001871,-0.0714464858174,-1.50680534894e-06,6.86442041397,-0.002153,0.020744,0.075806,-0.013337,0.103464,0.093086
1379,38180663264,4.30472362183e-05,-0.000124893151227,9.46777334543,0.999999964562,1.37314481452e-07,-4.14614100397e-06,-0.000266194325494,-0.0719056949019,-6.46591161191e-06,6.90845012665,-0.002153,0.020744,0.075806,-0.013337,0.103464,0.093086
1380,38190663263,4.02063774487e-05,-0.000125846825544,9.53690605546,0.999999964863,1.30332186377e-07,-4.14197781268e-06,-0.000265061831915,-0.071953587234,-1.03950503805e-06,6.9129319191,-0.002153,0.020744,0.075806,-0.013337,0.103464,0.093086
1381,38200663263,3.66012033695e-05,-0.000124511658203,9.60647842525,0.999999964435,1.31819373417e-07,-4.13209559047e-06,-0.000266671155523,-0.0724128782749,-5.80787627857e-06,6.95683526993,-0.002153,0.020744,0.075806,-0.013337,0.103464,0.093086
1382,38210663263,3.63337676532e-05,-0.00012546533253,9.67609660864,0.999999964736,1.23585813472e-07,-4.09100151955e-06,-0.000265538678207,-0.0724665597081,-1.1634826933e-06,6.96136522293,-0.002153,0.020744,0.075806,-0.013337,0.103464,0.093086
1383,38220663263,3.15173232792e-05,-0.000124206533652,9.74615155119,0.99999996434,1.23886719439e-07,-4.04678914862e-06,-0.00026702879026,-0.0729247257113,-5.45501689109e-06,7.00514125824,-0.002153,0.020744,0.075806,-0.013337,0.103464,0.093086
1384,38230663262,3.00286849182e-05,-0.000125236460011,9.81625326097,0.999999964657,1.2062158733e-07,-3.99165238574e-06,-0.000265836690888,-0.0729749798775,-6.48498542422e-07,7.00971984863,-0.002153,0.020744,0.075806,-0.013337,0.103464,0.093086
1385,38240663262,2.78055282621e-05,-0.000123977661133,9.88679176963,0.99999996426,1.14536292062e-07,-3.93287414269e-06,-0.000267326819222,-0.0734323635697,-4.87327543075e-06,7.05336856842,-0.002153,0.020744,0.075806,-0.013337,0.103464,0.093086
1386,38250663262,2.51254842638e-05,-0.000125007587481,9.95737414492,0.999999964579,9.97718259677e-08,-3.86265002028e-06,-0.000266134719896,-0.0734819471836,-7.53402675358e-07,7.05799436569,-0.002153,0.020744,0.075806,-0.013337,0.103464,0.093086
1387,38260663262,2.17009896204e-05,-0.000123825040642,10.0283942727,0.999999964213,9.8963445716e-08,-3.79034928194e-06,-0.000267505620389,-0.0739379376173,-5.48362732111e-06,7.10151290894,-0.002153,0.020744,0.075806,-0.013337,0.103464,0.093086
1388,38270663262,2.54386560385e-05,-0.00012485508341,10.0994593002,0.999999964548,9.07626052649e-08,-3.71492543189e-06,-0.000266253931508,-0.0739883929491,-1.02996818985e-06,7.10618495941,-0.002153,0.020744,0.075806,-0.013337,0.103464,0.093086
1389,38280663261,2.46372461348e-05,-0.000123863224871,10.1709601333,0.999999964182,9.05900131021e-08,-3.64314500001e-06,-0.000267624831999,-0.0744404792786,-4.53948951096e-06,7.14957427979,-0.002153,0.020744,0.075806,-0.013337,0.103464,0.093086
1390,38290663261,2.33789488959e-05,-0.000124702462923,10.242504833,0.999999964516,9.41732182236e-08,-3.56304296123e-06,-0.000266373143075,-0.0744900256395,-4.67300424267e-06,7.15429019928,-0.002153,0.020744,0.075806,-0.013337,0.103464,0.093086
1391,38300663261,2.13960656765e-05,-0.00012374878861,10.3144853779,0.999999964135,8.90654312524e-08,-3.49074106937e-06,-0.000267803649365,-0.0749425143003,-4.41551219588e-06,7.19755172729,-0.002153,0.020744,0.075806,-0.013337,0.103464,0.093086
1392,38310663261,2.2760853156e-05,-0.000124588026665,10.3865107828,0.999999964501,9.1989306894e-08,-3.41167914353e-06,-0.000266432748878,-0.0749927610159,-3.6239623582e-06,7.20230865479,-0.002153,0.020744,0.075806,-0.013337,0.103464,0.093086
1393,38320663260,2.72254773606e-05,-0.000123672420159,10.4589711191,0.999999964135,9.05354241021e-08,-3.34093866794e-06,-0.000267803649373,-0.0754426270723,-2.7465819139e-06,7.24543857574,-0.002153,0.020744,0.075806,-0.013337,0.103464,0.093086
1394,38330663260,2.74087915244e-05,-0.000124511658203,10.5314762359,0.999999964501,9.0979503653e-08,-3.27071860534e-06,-0.000266432748894,-0.0754906386137,-2.39372252597e-06,7.25024175644,-0.002153,0.020744,0.075806,-0.013337,0.103464,0.093086
1395,38340663260,3.07217394351e-05,-0.000123634352345,10.6044134233,0.999999964135,8.83203588598e-08,-3.21194122321e-06,-0.000267803649391,-0.0759387016296,-1.96456903856e-06,7.29323959351,-0.002153,0.020744,0.075806,-0.013337,0.103464,0.093086
1396,38350663260,3.3548002996e-05,-0.00012451165821,10.6773973381,0.999999964518,9.08177421599e-08,-3.15628586628e-06,-0.000266373143123,-0.075987175107,-1.00135798808e-06,7.29808568954,-0.002153,0.020744,0.075806,-0.013337,0.103464,0.093086
1397,38360663260,3.57092745844e-05,-0.000123672420155,10.7508113764,0.999999964184,9.14984245037e-08,-3.11831531147e-06,-0.000267624832043,-0.0764319524169,-9.25064059132e-07,7.34095001221,-0.002153,0.020744,0.075806,-0.013337,0.103464,0.093086
1398,38370663259,3.35594391316e-05,-0.000124588026665,10.8242730562,0.99999996455,9.71731107247e-08,-3.0793055556e-06,-0.000266253931546,-0.0764812007546,-1.20162963047e-06,7.34583902359,-0.002153,0.020744,0.075806,-0.013337,0.103464,0.093086
1399,38380663259,3.83835247888e-05,-0.00012374878861,10.8981639853,0.999999964216,1.03096363002e-07,-3.04809834306e-06,-0.000267505620449,-0.0769266709685,-1.44004821045e-06,7.38857078552,-0.002153,0.020744,0.075806,-0.013337,0.103464,0.093086
1400,38390663259,3.89064357051e-05,-0.000124702462923,10.9721016021,0.999999964582,1.05173699472e-07,-3.01272865327e-06,-0.000266134719963,-0.0769779160619,-1.4019011596e-06,7.39350223541,-0.002153,0.020744,0.075806,-0.013337,0.103464,0.093086
1401,38400663259,3.87742870274e-05,-0.000123863224871,11.0464683889,0.999999964264,1.09908691925e-07,-2.99140394933e-06,-0.000267326819343,-0.0774197801948,-1.53541566394e-06,7.43609952927,-0.002153,0.020744,0.075806,-0.013337,0.103464,0.093086
1402,38410663258,4.19699443555e-05,-0.000124778714962,11.1208819429,0.999999964645,1.1141125289e-07,-2.97059825133e-06,-0.00026589629682,-0.0774702131748,-2.13623047873e-06,7.44107341766,-0.002153,0.020744,0.075806,-0.013337,0.103464,0.093086
1403,38420663258,4.45304067256e-05,-0.000123977661136,11.1957227596,0.999999964296,1.21796368324e-07,-2.96175864306e-06,-0.000267207607746,-0.0779113173485,-1.42097474098e-06,7.48353719711,-0.002153,0.020744,0.075806,-0.013337,0.103464,0.093086
1404,38430663258,4.66041847389e-05,-0.000124931335456,11.2706103037,0.999999964661,1.23189830281e-07,-2.95863795818e-06,-0.000265836691004,-0.077960819006,-1.56402586615e-06,7.48855209351,-0.002153,0.020744,0.075806,-0.013337,0.103464,0.093086
1405,38440663258,4.80626324517e-05,-0.000124130281623,11.3459232033,0.999999964359,1.30198828829e-07,-2.97112353248e-06,-0.000266969184591,-0.0783984139562,-1.24931330081e-06,7.53088188171,-0.002153,0.020744,0.075806,-0.013337,0.103464,0.093086
1406,38450663257,4.8994666507e-05,-0.000125083955936,11.4212866449,0.99999996474,1.35495709319e-07,-2.98620906547e-06,-0.000265538678307,-0.0784488469362,-1.2683867685e-06,7.53593921661,-0.002153,0.020744,0.075806,-0.013337,0.103464,0.093086
1407,38460663257,4.93510995767e-05,-0.000124320969917,11.4970716274,0.999999964439,1.42600565967e-07,-3.01742002662e-06,-0.000266671155636,-0.0788856223226,-1.89781190008e-06,7.57813453674,-0.002153,0.020744,0.075806,-0.013337,0.103464,0.093086
1408,38470663257,4.91811189818e-05,-0.000125274644233,11.5729071518,0.999999964803,1.46225419106e-07,-3.04654911737e-06,-0.000265300255137,-0.0789371952414,-1.82151791295e-06,7.58323335648,-0.002153,0.020744,0.075806,-0.013337,0.103464,0.093086
1409,38480663257,5.22400954495e-05,-0.000124511658207,11.6491652106,0.999999964518,1.50932622289e-07,-3.08764226448e-06,-0.000266373142944,-0.0793732777238,-1.60217280243e-06,7.62529325485,-0.002153,0.020744,0.075806,-0.013337,0.103464,0.093086
1410,38490663257,5.47825905812e-05,-0.000125427264717,11.7254728577,0.999999964882,1.53790049195e-07,-3.13029500293e-06,-0.00026500222619,-0.0794242098927,-2.04086291111e-06,7.63043260574,-0.002153,0.020744,0.075806,-0.013337,0.103464,0.093086
1411,38500663256,5.67494847274e-05,-0.000124664278708,11.8022020457,0.999999964581,1.55201020202e-07,-3.18959248968e-06,-0.000266134719785,-0.0798573642969,-1.49726861487e-06,7.67235803604,-0.002153,0.020744,0.075806,-0.013337,0.103464,0.093086
1412,38510663256,5.82098298878e-05,-0.00012565613725,11.8789798685,0.999999964993,8.40829334492e-08,-2.79738139508e-06,-0.000264585002214,-0.0800270885229,-1.04904177256e-06,7.67753696442,-0.002153,0.020744,0.075806,-0.013337,0.103464,0.093086
1413,38520663256,5.90945740697e-05,-0.00012485508341,11.9561792322,0.999999964711,5.16409137674e-10,-1.94431558648e-06,-0.000265657890275,-0.0805907100439,-1.09672544291e-06,7.71932458878,-0.002153,0.020744,0.075806,-0.013337,0.103464,0.093086
1414,38530663256,5.94827015874e-05,-0.000125846825544,12.0334262771,0.999999965092,-2.6609958298e-07,-8.20204024921e-07,-0.000264227367973,-0.0807238146663,-1.59263606836e-06,7.72454500198,-0.002153,0.020744,0.075806,-0.013337,0.103464,0.093086
1415,38540663255,5.93150927699e-05,-0.000125122023743,12.1110929556,0.999999964808,-2.66481651523e-07,6.23728863725e-07,-0.000265300255415,-0.0812582299113,-1.11579891104e-06,7.76619911194,-0.002153,0.020744,0.075806,-0.013337,0.103464,0.093086
1416,38550663255,6.2425628343e-05,-0.000126037630253,12.1888111694,0.999999965184,-5.33218790788e-07,2.22377594872e-06,-0.00026386974813,-0.0813667625189,-1.18255616233e-06,7.77145957947,-0.002153,0.020744,0.075806,-0.013337,0.103464,0.093086
1417,38560663255,6.88247150009e-05,-0.000125312828459,12.2669461958,0.999999964879,-5.33700983241e-07,4.03337364241e-06,-0.00026500222452,-0.0818781852722,-1.12533564423e-06,7.81297779083,-0.002153,0.020744,0.075806,-0.013337,0.103464,0.093086
1418,38570663255,7.46973879444e-05,-0.000126304570589,12.3451317642,0.999999965232,-8.00502428511e-07,5.89505507809e-06,-0.000263631321471,-0.0819671005011,-3.14712510274e-07,7.81828069687,-0.002153,0.020744,0.075806,-0.013337,0.103464,0.093086
1419,38580663255,8.004412161e-05,-0.000125541700985,12.4237341054,0.999999964966,-8.01034258979e-07,7.88410420804e-06,-0.000264584996141,-0.0824601426721,-2.09808350249e-07,7.85966253281,-0.002153,0.020744,0.075806,-0.013337,0.103464,0.093086
1420,38590663254,8.1049951234e-05,-0.000126495375298,12.5023869489,0.999999965341,-1.06786118176e-06,9.87114086259e-06,-0.000263094879871,-0.0825374945998,4.29153429682e-07,7.86500453949,-0.002153,0.020744,0.075806,-0.013337,0.103464,0.093086
1421,38600663254,8.91786869559e-05,-0.000125770573508,12.5814547373,0.999999965036,-1.06841590136e-06,1.19309305863e-05,-0.000264167749244,-0.0830197706819,1.00135798542e-06,7.90625095367,-0.002153,0.020744,0.075806,-0.013337,0.103464,0.093086
1422,38610663254,9.6771076656e-05,-0.000126762432046,12.6605740214,0.999999965371,-1.06892909629e-06,1.39459849323e-05,-0.000262796846606,-0.0830880850554,1.03950503583e-06,7.91163444519,-0.002153,0.020744,0.075806,-0.013337,0.103464,0.093086
1423,38620663254,0.000100062766037,-0.000125999446027,12.7401062241,0.999999965089,-1.06948455825e-06,1.60010931907e-05,-0.000263750520671,-0.0835615247488,1.63078300242e-06,7.95274496078,-0.002153,0.020744,0.075806,-0.013337,0.103464,0.093086
1424,38630663253,0.000102808177061,-0.000127220177095,12.819690876,0.999999965432,-1.06998250055e-06,1.79875393e-05,-0.00026232001228,-0.0836253240705,2.89916988416e-06,7.95816898346,-0.002153,0.020744,0.075806,-0.013337,0.103464,0.093086
1425,38640663253,0.000108891800842,-0.000126457191076,12.8996875724,0.999999965128,-1.07052345644e-06,1.99713872582e-05,-0.000263333275947,-0.0840873718262,-2.18391414908e-06,7.99914121628,-0.002153,0.020744,0.075806,-0.013337,0.103464,0.093086
1426,38650663253,0.000114429146265,-0.000127410865389,12.9797367179,0.999999965448,-1.07099873919e-06,2.18902141101e-05,-0.000261962373408,-0.0841522589326,-1.32560728794e-06,8.0046081543,-0.002153,0.020744,0.075806,-0.013337,0.103464,0.093086
1427,38660663253,0.000123314636753,-0.000126762432046,13.0601969543,0.99999996517,-1.07151389217e-06,2.37767941467e-05,-0.000262856441867,-0.0846057906747,-5.24520887168e-07,8.04544639587,-0.002153,0.020744,0.075806,-0.013337,0.103464,0.093086
1428,38670663253,0.000124024868185,-0.000127677922137,13.1407095605,0.9999999655,-1.0719537536e-06,2.55884703186e-05,-0.000261425933659,-0.0846668928862,-5.53131089376e-07,8.05094909668,-0.002153,0.020744,0.075806,-0.013337,0.103464,0.093086
1429,38680663252,0.000131917599688,-0.000127029372379,13.2216313899,0.999999965172,-1.07244680203e-06,2.73621782905e-05,-0.00026249880333,-0.0851168110967,-9.15527325063e-07,8.09165096283,-0.002153,0.020744,0.075806,-0.013337,0.103464,0.093086
1430,38690663252,0.000135439630164,-0.000127944978885,13.3026065825,0.999999965484,-1.07284570772e-06,2.90339345447e-05,-0.000261127901052,-0.0851719528437,-5.24520887168e-07,8.09719753265,-0.002153,0.020744,0.075806,-0.013337,0.103464,0.093086
1431,38700663252,0.000142349535039,-0.000127296429124,13.3839890514,0.999999965217,-1.07329616367e-06,3.06614804979e-05,-0.000261962364004,-0.0856164991856,-1.23977658362e-07,8.13776111603,-0.002153,0.020744,0.075806,-0.013337,0.103464,0.093086
1432,38710663252,0.00014487880653,-0.00012825010344,13.465425837,0.999999965527,-1.07365398355e-06,3.21953973657e-05,-0.000260591461873,-0.085672236979,-1.907348679e-08,8.1433467865,-0.002153,0.020744,0.075806,-0.013337,0.103464,0.093086
1433,38720663251,0.000185146230457,-0.000127563485879,13.5472683493,0.999999964701,-3.20809369109e-06,4.70435981194e-05,-0.000261485416155,-0.0896255373955,9.63211048699e-07,8.18371009827,-0.002153,0.020744,0.075806,-0.013337,0.103464,0.093086
1434,38730663251,0.000221033021006,-0.000128707848493,13.6291651783,0.999999964206,-5.07631604607e-06,6.27213581319e-05,-0.000260054726384,-0.0900741368532,7.91549664925e-07,8.18935012817,-0.002153,0.020744,0.075806,-0.013337,0.103464,0.093086
1435,38740663251,0.00026795653136,-0.000127868610427,13.7114674559,0.99999996269,-6.67877075311e-06,7.99215355902e-05,-0.000261127399153,-0.0911141559482,-2.21252435129e-06,8.22963142395,-0.002153,0.020744,0.075806,-0.013337,0.103464,0.093086
1436,38750663251,0.00031431389872,-0.000128860468976,13.7938240899,0.999999961468,-8.01483583396e-06,9.76043250819e-05,-0.000259756250568,-0.091479241848,1.37329095473e-06,8.23529243469,-0.002153,0.020744,0.075806,-0.013337,0.103464,0.093086
1437,38760663251,0.00036027444709,-0.000128250103447,13.8765850996,0.999999959256,-9.08501869484e-06,0.000116178076596,-0.000260590442593,-0.0923916101456,1.10626217431e-06,8.27543830872,-0.002153,0.020744,0.075806,-0.013337,0.103464,0.093086
1438,38770663250,0.000417112323596,-0.000129241961986,13.959400585,0.999999957323,-9.88855364514e-06,0.000134509868867,-0.00025915964603,-0.0926196724176,4.00543200385e-07,8.28114509583,-0.002153,0.020744,0.075806,-0.013337,0.103464,0.093086
1439,38780663250,0.000465954197374,-0.000128440791745,14.0426175058,0.999999954388,-1.06924921247e-05,0.000153240637488,-0.000260053408806,-0.0934396609664,-3.52859503394e-07,8.32115745544,-0.002153,0.020744,0.075806,-0.013337,0.103464,0.093086
1440,38790663250,0.000529468024965,-0.000129470834516,14.1258908493,0.999999951796,-1.09633022007e-05,0.000171468779635,-0.000258622661948,-0.0936079770327,3.86238070771e-06,8.32690525055,-0.002153,0.020744,0.075806,-0.013337,0.103464,0.093086
1441,38800663250,0.000584995782177,-0.00012886046898,14.2095646745,0.999999948235,-1.15008550861e-05,0.000189783881477,-0.000259576036273,-0.0943562090397,1.64031973604e-06,8.36677837372,-0.002153,0.020744,0.075806,-0.013337,0.103464,0.093086
1442,38810663249,0.000643761954436,-0.000129890395328,14.2932938496,0.999999945111,-1.15051262278e-05,0.000207381013223,-0.000258145311358,-0.0944814831018,1.06811523892e-06,8.37256908417,-0.002153,0.020744,0.075806,-0.013337,0.103464,0.093086
1443,38820663249,0.000709800017788,-0.000129280029793,14.3774236653,0.999999941072,-1.17761768371e-05,0.000224843003137,-0.000259158332559,-0.0951763913035,9.53674206272e-09,8.41230773926,-0.002153,0.020744,0.075806,-0.013337,0.103464,0.093086
1444,38830663249,0.000771447515419,-0.000130081200044,14.4616087514,0.999999937547,-1.17801571359e-05,0.000241478900433,-0.000257787236169,-0.0952687561512,-3.24249271877e-07,8.41813850403,-0.002153,0.020744,0.075806,-0.013337,0.103464,0.093086
1445,38840663249,0.000836562346151,-0.000129623454992,14.5461934848,0.999999933257,-1.15182674677e-05,0.00025781514889,-0.000258621577022,-0.0959167852998,3.10897826061e-06,8.45773983002,-0.002153,0.020744,0.075806,-0.013337,0.103464,0.093086
1446,38850663249,0.000908730082273,-0.000130577129312,14.6308336078,0.999999929503,-1.15218928339e-05,0.000273281752344,-0.000257250498408,-0.0959909930825,-1.08718870884e-06,8.46360874176,-0.002153,0.020744,0.075806,-0.013337,0.103464,0.093086
1447,38860663248,0.000980590390412,-0.000129928579554,14.7158695239,0.999999925023,-1.1259727963e-05,0.000288478875121,-0.000258084864768,-0.0966371074319,-1.90734853689e-07,8.50307369232,-0.002153,0.020744,0.075806,-0.013337,0.103464,0.093086
1448,38870663248,0.00105184482622,-0.000130844069648,14.800963611,0.999999921157,-1.09966806865e-05,0.00030276051192,-0.000256713867886,-0.0966907888651,1.21116636187e-06,8.50898742676,-0.002153,0.020744,0.075806,-0.013337,0.103464,0.093086
1449,38880663248,0.00112279183406,-0.000130424508828,14.8864534912,0.99999991666,-1.0734188491e-05,0.00031654959261,-0.000257607870966,-0.0972638130188,4.76837112018e-08,8.54831314087,-0.002153,0.020744,0.075806,-0.013337,0.103464,0.093086
1450,38890663248,0.00119314290192,-0.000131111126397,14.9720005888,0.999999912858,-1.0470727042e-05,0.000329464279006,-0.000256177313865,-0.0973137095571,-1.90734863459e-06,8.5542678833,-0.002153,0.020744,0.075806,-0.013337,0.103464,0.093086
1451,38900663247,0.00126320640643,-0.000130729633383,15.0579415722,0.999999908422,-1.0207956774e-05,0.000341869765751,-0.000257250162762,-0.0978656560183,2.30789168931e-06,8.59345722198,-0.002153,0.020744,0.075806,-0.013337,0.103464,0.093086
1452,38910663247,0.00134411744207,-0.000131645239883,15.1439398921,0.999999904798,-9.67775711735e-06,0.000353450722632,-0.000255700498792,-0.0979153439403,-2.46047966534e-06,8.59945011139,-0.002153,0.020744,0.075806,-0.013337,0.103464,0.093086
1453,38920663247,0.00142093635638,-0.000130996690132,15.2303311046,0.999999900584,-9.41461686765e-06,0.000364515264351,-0.000256654164974,-0.098444133997,-5.43594355307e-07,8.63850307465,-0.002153,0.020744,0.075806,-0.013337,0.103464,0.093086
1454,38930663247,0.00150477837908,-0.000131988548674,15.3167805675,0.999999897104,-9.15044801891e-06,0.000374883825865,-0.00025528326679,-0.0985118970275,-1.20162963047e-06,8.64453983307,-0.002153,0.020744,0.075806,-0.013337,0.103464,0.093086
1455,38940663247,0.0015959816839,-0.00013130181469,15.4036220884,0.999999891039,-9.68730765022e-06,0.000390168536229,-0.000256117383719,-0.100450836122,-1.18255616233e-06,8.68343067169,-0.002153,0.020744,0.075806,-0.013337,0.103464,0.093086
1456,38950663246,0.00169039360675,-0.00013225548901,15.4905218201,0.999999884112,-1.07566711685e-05,0.000408367753532,-0.000254745855732,-0.101513303816,-1.11579891104e-06,8.68950176239,-0.002153,0.020744,0.075806,-0.013337,0.103464,0.093086
