frame,timestamp,acc x (m/s^2),acc y (m/s^2),acc z (m/s^2),gyro x (rad/s),gyro y (rad/s),gyro z (rad/s),x (Ground truth),y (Ground truth),z (Ground truth),yaw (Ground Truth),pitch (Ground Truth),roll (Ground Truth)
477,16.6934255573578,0,0,9.8100004196167,0,0,0,-23.8005466461182,61.2423858642578,0.001868057181127,-0.596735239028931,0,0
478,16.7034255571343,0,0,9.8100004196167,0,0,0,-23.8005466461182,61.2423858642578,0.001868057181127,-0.596735239028931,0,0
479,16.7134255569108,0,0,9.8100004196167,0,0,0,-23.8005466461182,61.2423858642578,0.001868057181127,-0.596735239028931,0,0
480,16.7234255566873,0,0,9.8100004196167,0,0,0,-23.8005466461182,61.2423858642578,0.001868057181127,-0.596735239028931,0,0
481,16.7334255564638,0,0,9.8100004196167,0,0,0,-23.8005466461182,61.2423858642578,0.001868057181127,-0.596735239028931,0,0
482,16.7434255562403,0,0,9.8100004196167,0,0,0,-23.8005466461182,61.2423858642578,0.001868057181127,-0.596735239028931,0,0
483,16.7534255560167,0,0,9.8100004196167,0,0,0,-23.8005466461182,61.2423858642578,0.001868057181127,-0.596735239028931,0,0
484,16.7634255557932,0,0,9.8100004196167,0,0,0,-23.8005466461182,61.2423858642578,0.001868057181127,-0.596735239028931,0,0
485,16.7734255555697,0,0,9.8100004196167,0,0,0,-23.8005466461182,61.2423858642578,0.001868057181127,-0.596735239028931,0,0
486,16.7834255553462,0,0,9.8100004196167,0,0,0,-23.8005466461182,61.2423858642578,0.001868057181127,-0.596735239028931,0,0
487,16.7934255551227,0,0,9.8100004196167,0,0,0,-23.8005466461182,61.2423858642578,0.001868057181127,-0.596735239028931,0,0
488,16.8034255548992,0,0,9.8100004196167,0,0,0,-23.8005466461182,61.2423858642578,0.001868057181127,-0.596735239028931,0,0
489,16.8134255546756,0,0,9.8100004196167,0,0,0,-23.8005466461182,61.2423858642578,0.001868057181127,-0.596735239028931,0,0
490,16.8234255544521,0,0,9.8100004196167,0,0,0,-23.8005466461182,61.2423858642578,0.001868057181127,-0.596735239028931,0,0
491,16.8334255542286,0,0,9.8100004196167,0,0,0,-23.8005466461182,61.2423858642578,0.001868057181127,-0.596735239028931,0,0
492,16.8434255540051,0,0,9.8100004196167,0,0,0,-23.8005466461182,61.2423858642578,0.001868057181127,-0.596735239028931,0,0
493,16.8534255537816,0,0,9.8100004196167,0,0,0,-23.8005466461182,61.2423858642578,0.001868057181127,-0.596735239028931,0,0
494,16.863425553558,0,0,9.8100004196167,0,0,0,-23.8005466461182,61.2423858642578,0.001868057181127,-0.596735239028931,0,0
495,16.8734255533345,0,0,9.8100004196167,0,0,0,-23.8005466461182,61.2423858642578,0.001868057181127,-0.596735239028931,0,0
496,16.883425553111,0,0,9.8100004196167,0,0,0,-23.8005466461182,61.2423858642578,0.001868057181127,-0.596735239028931,0,0
497,16.8934255528875,0,0,9.8100004196167,0,0,0,-23.8005466461182,61.2423858642578,0.001868057181127,-0.596735239028931,0,0
498,16.903425552664,0,0,9.8100004196167,0,0,0,-23.8005466461182,61.2423858642578,0.001868057181127,-0.596735239028931,0,0
499,16.9134255524405,0,0,9.8100004196167,0,0,0,-23.8005466461182,61.2423858642578,0.001868057181127,-0.596735239028931,0,0
500,16.9234255522169,0,0,9.8100004196167,0,0,0,-23.8005466461182,61.2423858642578,0.001868057181127,-0.596735239028931,0,0
501,16.9334255519934,0,0,9.8100004196167,0,0,0,-23.8005466461182,61.2423858642578,0.001868057181127,-0.596735239028931,0,0
502,16.9434255517699,0,0,9.8100004196167,0,0,0,-23.8005466461182,61.2423858642578,0.001868057181127,-0.596735239028931,0,0
503,16.9534255515464,0,0,9.8100004196167,0,0,0,-23.8005466461182,61.2423858642578,0.001868057181127,-0.596735239028931,0,0
504,16.9634255513229,0,0,9.18782424926758,8.29694556614413E-07,-3.47604867556583E-07,9.90720838700554E-11,-23.8005466461182,61.2423858642578,0.001805839478038,-0.596735239028931,0,0
505,16.9734255510994,0,0,9.90536689758301,8.51490426612145E-07,-3.52850406670768E-07,-8.77187211756336E-13,-23.8005466461182,61.2423858642578,0.001753158518113,-0.596735239028931,0,0
506,16.9834255508758,0,0,9.89392375946045,1.79934886546107E-07,3.77395981132622E-09,7.4402095595616E-11,-23.8005466461182,61.2423858642578,0.001708869938739,-0.596735239028931,0,0
507,16.9934255506523,0,0,9.88286304473877,8.53720337090635E-07,3.54077201336622E-07,3.64518276674275E-11,-23.8005466461182,61.2423858642578,0.001671867328696,-0.596735239028931,0,0
508,17.0034255504288,0,0,9.87294101715088,-3.79171751774265E-08,1.04604014339316E-08,-2.07856717948651E-11,-23.8005466461182,61.2423858642578,0.001641159062274,-0.596735239028931,0,0
509,17.0134255502053,0,0,9.86531448364258,8.4029557001486E-07,-3.38189948934087E-07,1.03311803556494E-12,-23.8005466461182,61.2423858642578,0.001615982037038,-0.596735239028931,0,0
510,17.0234255499818,0,0,9.85768508911133,-4.93101381948691E-08,1.65640123839239E-08,-3.35731442646647E-13,-23.8005466461182,61.2423858642578,0.001595573383383,-0.596735239028931,0,0
511,17.0334255497583,0,0,9.85119819641113,-7.60861311732697E-08,2.60745007807373E-08,4.53725945703809E-12,-23.8005466461182,61.2423858642578,0.001579284667969,-0.596735239028931,0,0
512,17.0434255495347,0,0,9.84585952758789,-1.00812762582336E-07,3.27251541420992E-08,5.81092465812283E-12,-23.8005466461182,61.2423858642578,0.001566581660882,-0.596735239028931,0,0
513,17.0534255493112,0,0,9.84051704406738,-1.25345763990481E-07,4.17318268830513E-08,6.07664266127905E-12,-23.8005466461182,61.2423858642578,0.001556930481456,-0.596735239028931,0,0
514,17.0634255490877,0,0,9.83594036102295,7.65390169021885E-08,4.83376005888658E-08,7.33581251299853E-12,-23.8005466461182,61.2423858642578,0.001549873268232,-0.596735239028931,0,0
515,17.0734255488642,0,0,9.83212661743164,-1.76405080765107E-07,5.73932510405939E-08,-9.60207607869634E-12,-23.8005466461182,61.2423858642578,0.001545028644614,-0.596735239028931,0,0
516,17.0834255486407,0,0,9.82869148254395,-2.13182872244033E-07,6.12372232922098E-08,4.19541901219844E-11,-23.8005466461182,61.2423858642578,0.001542053185403,-0.596735239028931,0,0
517,17.0934255484171,0,0,9.82602214813232,-2.26862766794511E-07,7.06973679598377E-08,5.52710099910314E-11,-23.8005466461182,61.2423858642578,0.001540679950267,-0.596735239028931,0,0
518,17.1034255481936,0,0,9.82373332977295,-2.79911738232386E-08,7.40068983873243E-08,3.00469024661076E-12,-23.8005466461182,61.2423858642578,0.001540679950267,-0.596735239028931,0,0
519,17.1134255479701,0,0,9.8203010559082,6.26166524853034E-07,-2.69862255208864E-07,-4.22714988013162E-11,-23.8005466461182,61.2423858642578,0.001541709876619,-0.596735239028931,0,0
520,17.1234255477466,0,0,9.81953620910645,-2.9025326853116E-07,8.68279528276617E-08,1.11553405401921E-11,-23.8005466461182,61.2423858642578,0.001543693477288,-0.596735239028931,0,0
521,17.1334255475231,0,0,9.81724739074707,5.75246872358548E-07,-2.56556432987054E-07,-3.43215941778219E-11,-23.8005466461182,61.2423858642578,0.001546401996166,-0.596735239028931,0,0
522,17.1434255472996,0,0,9.8161039352417,-1.1710329061998E-07,9.72650937569597E-08,2.41979561388383E-11,-23.8005466461182,61.2423858642578,0.00154972076416,-0.596735239028931,0,0
523,17.153425547076,0,0,9.81457901000977,-1.42190657470564E-07,1.05357955249019E-07,-3.05763574182105E-12,-23.8005466461182,61.2423858642578,0.0015534972772,-0.596735239028931,0,0
524,17.1634255468525,0,0,9.81343269348145,-3.89839414083326E-07,1.14404670625845E-07,-1.30580130042191E-11,-23.8005466461182,61.2423858642578,0.001557617099024,-0.596735239028931,0,0
525,17.173425546629,0,0,9.81267166137695,-4.2291063095945E-07,1.16355252544054E-07,3.99219823865593E-11,-23.8005466461182,61.2423858642578,0.001562004094012,-0.596735239028931,0,0
526,17.1834255464055,0,0,9.8119068145752,-4.27999907515186E-07,1.23914503546985E-07,-1.43038358935144E-11,-23.8005466461182,61.2423858642578,0.001566581660882,-0.596735239028931,0,0
527,17.193425546182,0,0,9.81114387512207,4.22863109861282E-07,-2.25600288672467E-07,1.50616741301235E-11,-23.8005466461182,61.2423858642578,0.001571273780428,-0.596735239028931,0,0
528,17.2034255459585,0,0,9.81038284301758,-4.8545729214311E-07,1.23061937529201E-07,4.7032849836981E-11,-23.8005466461182,61.2423858642578,0.001576003967784,-0.596735239028931,0,0
529,17.2134255457349,0,0,9.81038284301758,-4.95839742598037E-07,1.25000653383722E-07,2.68829680738492E-11,-23.8005466461182,61.2423858642578,0.001580772339366,-0.596735239028931,0,0
530,17.2234255455114,0,0,9.80961799621582,-5.13717907324462E-07,1.26926906318658E-07,3.11962400356691E-11,-23.8005466461182,61.2423858642578,0.001585502643138,-0.596735239028931,0,0
531,17.2334255452879,0,0,9.80961799621582,-5.3025723900646E-07,1.23662616147158E-07,2.61217159014393E-11,-23.8005466461182,61.2423858642578,0.001590194646269,-0.596735239028931,0,0
532,17.2434255450644,0,0,9.80885696411133,1.24530299672188E-06,-5.80692983476183E-07,-3.06884240242056E-11,-23.8005466461182,61.2423858642578,0.001594772329554,-0.596735239028931,0,0
533,17.2534255448409,0,0,9.80885696411133,-5.36374443527166E-07,1.19390264785579E-07,1.33077993069719E-11,-23.8005466461182,61.2423858642578,0.001599235460162,-0.596735239028931,0,0
534,17.2634255446173,0,0,9.80885410308838,-5.51036578144704E-07,1.27493834156667E-07,-1.24627808073541E-11,-23.8005466461182,61.2423858642578,0.001603584270924,-0.596735239028931,0,0
535,17.2734255443938,0,0,9.80885791778564,3.15021992491893E-07,-2.3100338353288E-07,1.67601488243463E-11,-23.8005466461182,61.2423858642578,0.00160781852901,-0.596735239028931,0,0
536,17.2834255441703,0,0,9.80809211730957,-5.583158895206E-07,1.19936544251686E-07,4.03214441002664E-11,-23.8005466461182,61.2423858642578,0.001611862098798,-0.596735239028931,0,0
537,17.2934255439468,0,0,9.8088550567627,9.52953087107744E-07,1.29208260091218E-07,-1.55633506082609E-10,-23.8005466461182,61.2423858642578,0.001615791232325,-0.596735239028931,0,0
538,17.3034255437233,0,0,9.80809497833252,3.01285581372213E-07,-2.22032127794591E-07,6.42704778286429E-11,-23.8005466461182,61.2423858642578,0.001619529677555,-0.596735239028931,0,0
539,17.3134255434998,0,0,9.8084716796875,2.93853958055479E-07,-2.23460816073384E-07,-1.5557360955043E-11,-23.8005466461182,61.2423858642578,0.001623115502298,-0.596735239028931,0,0
540,17.3234255432762,0,0,9.8084774017334,2.98753690231024E-07,4.74484949108955E-07,6.99104593659961E-11,-23.8005466461182,61.2423858642578,0.001626548706554,-0.596735239028931,0,0
541,17.3334255430527,0,0,9.8084716796875,-5.97207417740719E-07,1.30913335283367E-07,2.51557663588642E-11,-23.8005466461182,61.2423858642578,0.001629829406738,-0.596735239028931,0,0
542,17.3434255428292,0,0,9.80809497833252,-6.15956651017768E-07,1.34217714276019E-07,-4.21306878273242E-11,-23.8005466461182,61.2423858642578,0.00163291930221,-0.596735239028931,0,0
543,17.3534255426057,0,0,9.80847454071045,1.14151714569744E-06,-5.70124768728419E-07,-2.07357908621475E-10,-23.8005466461182,61.2423858642578,0.001635856577195,-0.596735239028931,0,0
544,17.3634255423822,0,0,9.80847358703613,-6.12502901731205E-07,1.27571155417172E-07,2.72669997691821E-10,-23.8005466461182,61.2423858642578,0.001638641348109,-0.596735239028931,0,0
545,17.3734255421587,0,0,9.78215408325195,0,0,0,-23.8005466461182,61.2423858642578,0.001638641348109,-0.596735239028931,0,0
546,17.3834255419351,0,0,9.8100004196167,-8.76121021065046E-07,3.46277204243961E-07,9.68289615155271E-11,-23.8005466461182,61.2423858642578,0.001638641348109,-0.596735239028931,0,0
547,17.3934255417116,0,0,9.82487869262695,1.57143382750746E-08,-1.64985785033878E-08,-1.39910333318838E-10,-23.8005466461182,61.2423858642578,0.001640129019506,-0.596735239028931,0,0
548,17.4034255414881,0,0,9.80542182922363,3.65825947312715E-08,-3.11689767329426E-08,2.70992672746218E-11,-23.8005466461182,61.2423858642578,0.001641159062274,-0.596735239028931,0,0
549,17.4134255412646,0,0,9.8111457824707,-8.43300540509517E-07,3.14174343429841E-07,1.06889330719895E-10,-23.8005466461182,61.2423858642578,0.001642303424887,-0.596735239028931,0,0
550,17.4234255410411,0,0,9.81114387512207,-8.39941151298262E-07,3.06652310655409E-07,-3.94657362345896E-11,-23.8005466461182,61.2423858642578,0.001643562223762,-0.596735239028931,0,0
551,17.4334255408176,0,0,9.81076431274414,6.36438812762208E-08,-5.89983990550991E-08,-1.11178899420139E-10,-23.8005466461182,61.2423858642578,0.001644897391088,-0.596735239028931,0,0
552,17.443425540594,0,0,9.81038093566895,9.89639488579996E-07,-4.28489329351578E-07,-6.32028457348E-11,-23.8005466461182,61.2423858642578,0.00164627074264,-0.596735239028931,0,0
553,17.4534255403705,0,0,9.81038093566895,-7.33237072836346E-07,2.67272838527788E-07,2.45358983130828E-10,-23.8005466461182,61.2423858642578,0.001647682162002,-0.596735239028931,0,0
554,17.463425540147,0,0,9.81000137329102,1.36718597332219E-07,-8.60112479017516E-08,-1.62752700205715E-10,-23.8005466461182,61.2423858642578,0.001649093581364,-0.596735239028931,0,0
555,17.4734255399235,0,0,9.8100004196167,1.68978715464618E-06,-9.52439975776542E-08,-8.49698089666617E-11,-23.8005466461182,61.2423858642578,0.001650505000725,-0.596735239028931,0,0
556,17.4834255397,0,0,9.80999946594238,1.81268802634804E-07,-1.0307684306099E-07,1.8197418572008E-10,-23.8005466461182,61.2423858642578,0.001651916420087,-0.596735239028931,0,0
557,17.4934255394764,0,0,9.80961990356445,-7.01608769304585E-07,2.41320464056116E-07,4.62431898329285E-11,-23.8005466461182,61.2423858642578,0.001653289771639,-0.596735239028931,0,0
558,17.5034255392529,0,0,9.8100004196167,1.82146109750647E-07,-1.16729630406098E-07,-1.54054824452743E-10,-23.8005466461182,61.2423858642578,0.001654663006775,-0.596735239028931,0,0
559,17.5134255390294,0,0,9.80961990356445,2.06053286433416E-07,-1.3187798231229E-07,2.35166330853076E-11,-23.8005466461182,61.2423858642578,0.001655998174101,-0.596735239028931,0,0
560,17.5234255388059,0,0,9.80923652648926,2.14856669344954E-07,-1.38492126211531E-07,8.13799375110058E-12,-23.8005466461182,61.2423858642578,0.001657257089391,-0.596735239028931,0,0
561,17.5334255385824,0,0,9.8100004196167,2.20947327989052E-07,-1.47925504734303E-07,8.8845684281802E-13,-23.8005466461182,61.2423858642578,0.001658515888266,-0.596735239028931,0,0
562,17.5434255383589,0,0,9.80923843383789,-6.57337807297154E-07,1.96943076957723E-07,9.75147393389442E-11,-23.8005466461182,61.2423858642578,0.001659698435105,-0.596735239028931,0,0
563,17.5534255381353,0,0,9.80961799621582,-6.67665005948948E-07,1.95574656913777E-07,-3.96439270300419E-11,-23.8005466461182,61.2423858642578,0.001660842914134,-0.596735239028931,0,0
564,17.5634255379118,0,0,9.80961990356445,1.96927899764887E-07,-1.55857620143252E-07,-1.07918216030178E-10,-23.8005466461182,61.2423858642578,0.001661949092522,-0.596735239028931,0,0
565,17.5734255376883,0,0,9.80961799621582,2.0881397233552E-07,-1.63912829975743E-07,3.5826230870839E-11,-23.8005466461182,61.2423858642578,0.0016630172031,-0.596735239028931,0,0
566,17.5834255374648,0,0,9.79931926727295,-6.74316197546432E-07,1.80496741108982E-07,1.07946311611595E-10,-23.8005466461182,61.2423858642578,0.0016630172031,-0.596735239028931,0,0
567,17.5934255372413,0,0,9.82945442199707,1.93536550341378E-07,-1.69979230690842E-07,-1.35200073358988E-10,-23.8005466461182,61.2423858642578,0.001664962735958,-0.596735239028931,0,0
568,17.6034255370178,0,0,9.79054641723633,1.73880584952713E-06,-1.72129091424722E-07,-7.55397550067372E-11,-23.8005466461182,61.2423858642578,0.001664962735958,-0.596735239028931,0,0
569,17.6134255367942,0,0,9.82792854309082,-6.8566708932849E-07,1.83361706262986E-07,2.84590462307222E-10,-23.8005466461182,61.2423858642578,0.00166675564833,-0.596735239028931,0,0
570,17.6234255365707,0,0,9.79207229614258,1.87871037837795E-07,-1.72789214047953E-07,-1.90449628290068E-10,-23.8005466461182,61.2423858642578,0.00166675564833,-0.596735239028931,0,0
571,17.6334255363472,0,0,9.82564163208008,1.7552797260123E-07,-1.69488970414022E-07,1.51078316523723E-11,-23.8005466461182,61.2423858642578,0.001668319688179,-0.596735239028931,0,0
572,17.6434255361237,0,0,9.79435920715332,8.32313503451587E-07,1.79869687144674E-07,-1.38175755559633E-12,-23.8005466461182,61.2423858642578,0.001668319688179,-0.596735239028931,0,0
573,17.6534255359002,0,0,9.82411575317383,-6.9321566797953E-07,1.7445218247758E-07,1.36148953222559E-10,-23.8005466461182,61.2423858642578,0.00166973110754,-0.596735239028931,0,0
574,17.6634255356767,0,0,9.79588508605957,1.54252575157443E-07,-1.69887968581861E-07,-1.58623059132168E-10,-23.8005466461182,61.2423858642578,0.00166973110754,-0.596735239028931,0,0
575,17.6734255354531,0,0,9.82258796691895,1.52672555486788E-07,-1.72733606973452E-07,2.12976858371405E-11,-23.8005466461182,61.2423858642578,0.001670989906415,-0.596735239028931,0,0
576,17.6834255352296,0,0,9.79741287231445,1.49673624605384E-07,-1.76494282300155E-07,6.87680728334028E-12,-23.8005466461182,61.2423858642578,0.001670989906415,-0.596735239028931,0,0
577,17.6934255350061,0,0,9.8210620880127,-7.42189229185897E-07,1.75470304952796E-07,9.97567237148722E-11,-23.8005466461182,61.2423858642578,0.001672096201219,-0.596735239028931,0,0
578,17.7034255347826,0,0,9.7989387512207,-7.63031493988819E-07,1.7930702256308E-07,-3.89310250703545E-11,-23.8005466461182,61.2423858642578,0.001672096201219,-0.596735239028931,0,0
579,17.7134255345591,0,0,9.8100004196167,1.28436369095652E-07,-1.68418821999694E-07,-1.09976458495531E-10,-23.8005466461182,61.2423858642578,0.001672096201219,-0.596735239028931,0,0
580,17.7234255343355,0,0,9.82449722290039,1.37868767069449E-07,-1.62810124493262E-07,3.86034537669389E-11,-23.8005466461182,61.2423858642578,0.001673545804806,-0.596735239028931,0,0
581,17.733425534112,0,0,9.79550361633301,1.17265699373093E-07,-1.58052074539228E-07,1.29936339465786E-11,-23.8005466461182,61.2423858642578,0.001673545804806,-0.596735239028931,0,0
582,17.7434255338885,0,0,9.8100004196167,-7.90520687132812E-07,1.97717284322607E-07,1.01174714439711E-10,-23.8005466461182,61.2423858642578,0.001673545804806,-0.596735239028931,0,0
583,17.753425533665,0,0,9.82182502746582,7.68322308886127E-07,2.05940935416038E-07,-1.46214401697264E-10,-23.8005466461182,61.2423858642578,0.001674728351645,-0.596735239028931,0,0
584,17.7634255334415,0,0,9.79817581176758,1.03340859425316E-07,-1.38674920435733E-07,7.03871128049371E-11,-23.8005466461182,61.2423858642578,0.001674728351645,-0.596735239028931,0,0
585,17.773425533218,0,0,9.8100004196167,-8.07494643595419E-07,2.18010569597027E-07,8.47419912020087E-11,-23.8005466461182,61.2423858642578,0.001674728351645,-0.596735239028931,0,0
586,17.7834255329944,0,0,9.8100004196167,7.14268992396683E-07,2.17840451455231E-07,-1.49895290624258E-10,-23.8005466461182,61.2423858642578,0.001674728351645,-0.596735239028931,0,0
587,17.7934255327709,0,0,9.8100004196167,0,0,0,-23.8005466461182,61.2423858642578,0.001674728351645,-0.596735239028931,0,0
588,17.8034255325474,0,0,9.82029914855957,6.99989843866433E-09,-1.03771000681263E-08,-1.59845997115687E-12,-23.8005466461182,61.2423858642578,0.001675758277997,-0.596735239028931,0,0
589,17.8134255323239,0,0,9.79970169067383,-1.55202684037903E-09,-1.08292592670978E-08,8.22774899426892E-13,-23.8005466461182,61.2423858642578,0.001675758277997,-0.596735239028931,0,0
590,17.8234255321004,0,0,9.8100004196167,5.5484647987214E-09,-1.83809731879592E-08,-1.62108889679991E-12,-23.8005466461182,61.2423858642578,0.001675758277997,-0.596735239028931,0,0
591,17.8334255318769,0,0,9.8100004196167,8.86689406343066E-07,-3.72205590792873E-07,-9.7768279583299E-11,-23.8005466461182,61.2423858642578,0.001675758277997,-0.596735239028931,0,0
592,17.8434255316533,0,0,9.8100004196167,1.10647393469776E-08,-2.92477668750735E-08,1.36952588158934E-10,-23.8005466461182,61.2423858642578,0.001675758277997,-0.596735239028931,0,0
593,17.8534255314298,0,0,9.8100004196167,-8.85248368831526E-07,3.21806680858572E-07,6.93796756157106E-11,-23.8005466461182,61.2423858642578,0.001675758277997,-0.596735239028931,0,0
594,17.8634255312063,0,0,9.8100004196167,-6.49129550112093E-09,-3.43460868634793E-08,-1.48015960599324E-10,-23.8005466461182,61.2423858642578,0.001675758277997,-0.596735239028931,0,0
595,17.8734255309828,0,0,9.8100004196167,-8.9632004574014E-07,3.15707467279935E-07,1.25730009736813E-10,-23.8005466461182,61.2423858642578,0.001675758277997,-0.596735239028931,0,0
596,17.8834255307593,0,0,9.8100004196167,-1.87611863822212E-08,-4.04415025911931E-08,-1.30383953633739E-10,-23.8005466461182,61.2423858642578,0.001675758277997,-0.596735239028931,0,0
597,17.8934255305358,0,0,9.8203010559082,8.87115447767428E-07,-3.94344567666849E-07,-6.87328180482005E-11,-23.8005466461182,61.2423858642578,0.001676788320765,-0.596735239028931,0,0
598,17.9034255303122,0,0,9.7996997833252,2.31003713935252E-08,-4.43481980028082E-08,1.47075310263922E-10,-23.8005466461182,61.2423858642578,0.001676788320765,-0.596735239028931,0,0
599,17.9134255300887,0,0,9.8100004196167,2.00709067144089E-08,-4.14931982106737E-08,-2.62091737202041E-11,-23.8005466461182,61.2423858642578,0.001676788320765,-0.596735239028931,0,0
600,17.9234255298652,0,0,9.8100004196167,1.41757370286655E-08,-4.3363758805981E-08,-8.20596542105978E-12,-23.8005466461182,61.2423858642578,0.001676788320765,-0.596735239028931,0,0
601,17.9334255296417,0,0,9.8100004196167,-8.69079315179988E-07,3.1234858965945E-07,9.64007068615658E-11,-23.8005466461182,61.2423858642578,0.001676788320765,-0.596735239028931,0,0
602,17.9434255294182,0,0,9.8100004196167,8.08778111149877E-09,-4.28575894773076E-08,-1.38757560996794E-10,-23.8005466461182,61.2423858642578,0.001676788320765,-0.596735239028931,0,0
603,17.9534255291946,0,0,9.8100004196167,1.57478586970683E-06,-4.50568755638869E-08,-7.69811298040324E-11,-23.8005466461182,61.2423858642578,0.001676788320765,-0.596735239028931,0,0
604,17.9634255289711,0,0,9.8100004196167,-8.3376141901681E-07,3.05688018897854E-07,2.84055057253596E-10,-23.8005466461182,61.2423858642578,0.001676788320765,-0.596735239028931,0,0
605,17.9734255287476,0,0,9.8100004196167,-8.50818310027535E-07,3.04795435113192E-07,-9.06616726137344E-11,-23.8005466461182,61.2423858642578,0.001676788320765,-0.596735239028931,0,0
606,17.9834255285241,0,0,9.82068157196045,9.1528727352852E-07,-4.04277443522005E-07,-2.23112778252599E-10,-23.8005466461182,61.2423858642578,0.001677856431343,-0.596735239028931,0,0
607,17.9934255283006,0,0,9.79931926727295,4.44299210755617E-08,-6.08817529723638E-08,1.72063266412614E-10,-23.8005466461182,61.2423858642578,0.001677856431343,-0.596735239028931,0,0
608,18.0034255280771,0,0,9.8100004196167,4.76674024696422E-08,-6.98152220479642E-08,-2.0252841070878E-11,-23.8005466461182,61.2423858642578,0.001677856431343,-0.596735239028931,0,0
609,18.0134255278535,0,0,9.8100004196167,4.39740510671527E-08,-7.2162585240676E-08,-6.66930920212305E-12,-23.8005466461182,61.2423858642578,0.001677856431343,-0.596735239028931,0,0
610,18.02342552763,0,0,9.8100004196167,-8.36651395275112E-07,2.70827854365052E-07,9.52701806333778E-11,-23.8005466461182,61.2423858642578,0.001677856431343,-0.596735239028931,0,0
611,18.0334255274065,0,0,9.8100004196167,1.57441445480799E-06,-7.70619337231437E-08,-2.4162064016231E-10,-23.8005466461182,61.2423858642578,0.001677856431343,-0.596735239028931,0,0
612,18.043425527183,0,0,9.8100004196167,-8.19934371065756E-07,2.67976531631575E-07,3.01537322888734E-10,-23.8005466461182,61.2423858642578,0.001677856431343,-0.596735239028931,0,0
613,18.0534255269595,0,0,9.8100004196167,9.21553009902709E-07,-4.37258904639748E-07,-2.786889885531E-10,-23.8005466461182,61.2423858642578,0.001677856431343,-0.596735239028931,0,0
614,18.063425526736,0,0,9.8100004196167,-8.22282459012058E-07,2.53346570389112E-07,2.48395970459114E-10,-23.8005466461182,61.2423858642578,0.001677856431343,-0.596735239028931,0,0
615,18.0734255265124,0,0,9.8100004196167,9.23836239508091E-07,-4.48570233402279E-07,-2.57530136105188E-10,-23.8005466461182,61.2423858642578,0.001677856431343,-0.596735239028931,0,0
616,18.0834255262889,0,0,9.8100004196167,-8.23932282401074E-07,2.4204626924984E-07,2.55025917050844E-10,-23.8005466461182,61.2423858642578,0.001677856431343,-0.596735239028931,0,0
617,18.0934255260654,0,0,9.8100004196167,3.77814295404733E-08,-1.0839370645499E-07,-1.58521584747717E-10,-23.8005466461182,61.2423858642578,0.001677856431343,-0.596735239028931,0,0
618,18.1034255258419,0,0,9.8100004196167,3.29914513486074E-08,-1.11231031496573E-07,2.1448065545826E-11,-23.8005466461182,61.2423858642578,0.001677856431343,-0.596735239028931,0,0
619,18.1134255256184,0,0,9.8100004196167,-8.49285754611628E-07,2.32705573921521E-07,1.03912628501845E-10,-23.8005466461182,61.2423858642578,0.001677856431343,-0.596735239028931,0,0
620,18.1234255253949,0,0,9.8100004196167,9.96052129664804E-09,-1.18221748834912E-07,-1.35367411724374E-10,-23.8005466461182,61.2423858642578,0.001677856431343,-0.596735239028931,0,0
621,18.1334255251713,0,0,9.8203010559082,1.55079726482654E-06,-1.22716372175091E-07,-7.60199611593571E-11,-23.8005466461182,61.2423858642578,0.001678886357695,-0.596735239028931,0,0
622,18.1434255249478,0,0,9.7996997833252,2.52926195543068E-08,-1.27684160133867E-07,1.84335630093457E-10,-23.8005466461182,61.2423858642578,0.001678886357695,-0.596735239028931,0,0
623,18.1534255247243,0,0,9.8100004196167,-8.59933550145797E-07,2.13892874967314E-07,4.53941884082099E-11,-23.8005466461182,61.2423858642578,0.001678886357695,-0.596735239028931,0,0
624,18.1634255245008,0,0,9.8100004196167,3.9153902342548E-09,-1.34692783149148E-07,-1.52017454180253E-10,-23.8005466461182,61.2423858642578,0.001678886357695,-0.596735239028931,0,0
625,18.1734255242773,0,0,9.8100004196167,6.43407190636935E-07,2.18921400119143E-07,2.08447842320325E-11,-23.8005466461182,61.2423858642578,0.001678886357695,-0.596735239028931,0,0
626,18.1834255240537,0,0,9.8100004196167,-1.21220971038838E-08,-1.332297188128E-07,4.59578070044486E-11,-23.8005466461182,61.2423858642578,0.001678886357695,-0.596735239028931,0,0
627,18.1934255238302,0,0,9.8100004196167,-8.93981166427693E-07,2.10672553180302E-07,7.41597686038098E-11,-23.8005466461182,61.2423858642578,0.001678886357695,-0.596735239028931,0,0
628,18.2034255236067,0,0,9.8100004196167,-3.28945120031676E-08,-1.38377018288338E-07,-1.43071748892609E-10,-23.8005466461182,61.2423858642578,0.001678886357695,-0.596735239028931,0,0
629,18.2134255233832,0,0,9.8100004196167,0,0,0,-23.8005466461182,61.2423858642578,0.001678886357695,-0.596735239028931,0,0
630,18.2234255231597,0,0,9.8100004196167,2.25139507037397E-09,2.34961561318414E-09,1.02268698067357E-13,-23.8005466461182,61.2423858642578,0.001678886357695,-0.596735239028931,0,0
631,18.2334255229362,0,0,9.8100004196167,4.51262405221087E-09,4.69941774383642E-09,2.17145772933927E-13,-23.8005466461182,61.2423858642578,0.001678886357695,-0.596735239028931,0,0
632,18.2434255227126,0,0,9.8100004196167,6.77531586390501E-09,7.04921365723976E-09,2.45878567072672E-13,-23.8005466461182,61.2423858642578,0.001678886357695,-0.596735239028931,0,0
633,18.2534255224891,0,0,9.8100004196167,9.03815600139524E-09,9.39901756424888E-09,2.5129776189646E-13,-23.8005466461182,61.2423858642578,0.001678886357695,-0.596735239028931,0,0
634,18.2634255222656,0,0,9.8100004196167,1.13010472091446E-08,1.17488188067227E-08,2.52200793885923E-13,-23.8005466461182,61.2423858642578,0.001678886357695,-0.596735239028931,0,0
635,18.2734255220421,0,0,9.8100004196167,1.35639135478982E-08,1.4098620937375E-08,2.52313496701753E-13,-23.8005466461182,61.2423858642578,0.001678886357695,-0.596735239028931,0,0
636,18.2834255218186,0,0,9.8100004196167,1.58267763339381E-08,1.64484230680273E-08,2.5233390680765E-13,-23.8005466461182,61.2423858642578,0.001678886357695,-0.596735239028931,0,0
637,18.2934255215951,0,0,9.8100004196167,-6.20323248767818E-07,-3.32956915372051E-07,5.33726405085866E-12,-23.8005466461182,61.2423858642578,0.001678886357695,-0.596735239028931,0,0
638,18.3034255213715,0,0,9.8100004196167,5.48540270983722E-08,1.77371735077259E-08,-3.9117653560794E-11,-23.8005466461182,61.2423858642578,0.001678886357695,-0.596735239028931,0,0
639,18.313425521148,0,0,9.8100004196167,8.53747579299125E-08,2.0526520927433E-08,2.36029980282826E-11,-23.8005466461182,61.2423858642578,0.001678886357695,-0.596735239028931,0,0
640,18.3234255209245,0,0,9.8100004196167,1.13822281377907E-07,2.32893562213121E-08,6.79644361623044E-12,-23.8005466461182,61.2423858642578,0.001678886357695,-0.596735239028931,0,0
641,18.333425520701,0,0,9.8100004196167,1.29397577097734E-07,3.17316164455406E-08,2.929421028669E-12,-23.8005466461182,61.2423858642578,0.001678886357695,-0.596735239028931,0,0
642,18.3434255204775,0,0,9.8100004196167,1.4487464738977E-07,4.01743207589789E-08,1.28424864059146E-12,-23.8005466461182,61.2423858642578,0.001678886357695,-0.596735239028931,0,0
643,18.353425520254,0,0,9.8100004196167,-1.37666756927501E-06,4.31905462505711E-08,1.0438413328151E-10,-23.8005466461182,61.2423858642578,0.001678886357695,-0.596735239028931,0,0
644,18.3634255200304,0,0,9.8100004196167,-1.35759239583422E-06,4.40752181418702E-08,-7.30647209401525E-11,-23.8005466461182,61.2423858642578,0.001678886357695,-0.596735239028931,0,0
645,18.3734255198069,0,0,9.8100004196167,-4.44891242068479E-07,3.98025264303214E-07,-4.1345850354535E-11,-23.8005466461182,61.2423858642578,0.001678886357695,-0.596735239028931,0,0
646,18.3834255195834,0,0,9.8100004196167,-4.15398091035968E-07,-3.04202075085413E-07,-3.680591248445E-11,-23.8005466461182,61.2423858642578,0.001678886357695,-0.596735239028931,0,0
647,18.3934255193599,0,0,9.8100004196167,-3.62225534900062E-07,-3.02967094967244E-07,6.16193207569893E-12,-23.8005466461182,61.2423858642578,0.001678886357695,-0.596735239028931,0,0
648,18.4034255191364,0,0,9.8100004196167,1.20373010759067E-06,-3.03259099609932E-07,-1.0120915910905E-10,-23.8005466461182,61.2423858642578,0.001678886357695,-0.596735239028931,0,0
649,18.4134255189128,0,0,9.8100004196167,1.2417078778526E-06,-3.02389906892131E-07,7.28152121931558E-11,-23.8005466461182,61.2423858642578,0.001678886357695,-0.596735239028931,0,0
650,18.4234255186893,0,0,9.8100004196167,3.86314070510707E-07,5.09073281307337E-08,1.17619608497321E-10,-23.8005466461182,61.2423858642578,0.001678886357695,-0.596735239028931,0,0
651,18.4334255184658,0,0,9.8100004196167,3.98086143604814E-07,5.89088209324018E-08,-3.50162537854359E-11,-23.8005466461182,61.2423858642578,0.001678886357695,-0.596735239028931,0,0
652,18.4434255182423,0,0,9.8100004196167,4.14065397080776E-07,6.6878634186196E-08,-9.49630131474866E-12,-23.8005466461182,61.2423858642578,0.001678886357695,-0.596735239028931,0,0
653,18.4534255180188,0,0,9.8100004196167,4.30502069548311E-07,7.484789676937E-08,-1.19751084048936E-12,-23.8005466461182,61.2423858642578,0.001678886357695,-0.596735239028931,0,0
654,18.4634255177953,0,0,9.8100004196167,4.47004680381724E-07,8.28171948796808E-08,4.63173770171021E-13,-23.8005466461182,61.2423858642578,0.001678886357695,-0.596735239028931,0,0
655,18.4734255175717,0,0,9.8100004196167,4.63516727222668E-07,9.07864929899915E-08,7.51563308115655E-13,-23.8005466461182,61.2423858642578,0.001678886357695,-0.596735239028931,0,0
656,18.4834255173482,0,0,9.8100004196167,-1.81990813530319E-07,-2.54358155871159E-07,7.33784647627411E-12,-23.8005466461182,61.2423858642578,0.001678886357695,-0.596735239028931,0,0
657,18.4934255171247,0,0,9.8100004196167,4.80471214814315E-07,9.96620670434822E-08,-3.81163399454376E-11,-23.8005466461182,61.2423858642578,0.001678886357695,-0.596735239028931,0,0
658,18.5034255169012,0,0,9.8100004196167,-1.70929439491374E-07,-2.40255701555725E-07,3.1944783623894E-11,-23.8005466461182,61.2423858642578,0.001678886357695,-0.596735239028931,0,0
659,18.5134255166777,0,0,9.8100004196167,4.83530584460823E-07,1.18965459705578E-07,-3.07304771907102E-11,-23.8005466461182,61.2423858642578,0.001678886357695,-0.596735239028931,0,0
660,18.5234255164542,0,0,9.8100004196167,-1.67861273325798E-07,-2.20951832829996E-07,3.27691693224885E-11,-23.8005466461182,61.2423858642578,0.001678886357695,-0.596735239028931,0,0
661,18.5334255162306,0,0,9.8100004196167,-1.05544324924267E-06,1.39447863034547E-07,7.38812205858253E-11,-23.8005466461182,61.2423858642578,0.001678886357695,-0.596735239028931,0,0
662,18.5434255160071,0,0,9.8100004196167,-1.05268009065185E-06,1.51706757378633E-07,-4.6416967491858E-11,-23.8005466461182,61.2423858642578,0.001678886357695,-0.596735239028931,0,0
663,18.5534255157836,0,0,9.8100004196167,-1.03475804280606E-06,1.58259240379266E-07,-1.25719573640382E-11,-23.8005466461182,61.2423858642578,0.001678886357695,-0.596735239028931,0,0
664,18.5634255155601,0,0,9.8100004196167,-1.00582485629275E-06,1.59135367994168E-07,-3.21993993968039E-12,-23.8005466461182,61.2423858642578,0.001678886357695,-0.596735239028931,0,0
665,18.5734255153366,0,0,9.8100004196167,-8.89849616214633E-08,5.1213675078543E-07,-2.25586667401689E-11,-23.8005466461182,61.2423858642578,0.001678886357695,-0.596735239028931,0,0
666,18.5834255151131,0,0,9.8100004196167,-9.28547763123788E-07,1.66531819445481E-07,6.44968453644701E-11,-23.8005466461182,61.2423858642578,0.001678886357695,-0.596735239028931,0,0
667,18.5934255148895,0,0,9.8100004196167,-2.3262977322247E-07,-1.90669581456859E-07,-1.15396900368658E-10,-23.8005466461182,61.2423858642578,0.001678886357695,-0.596735239028931,0,0
668,18.603425514666,0,0,9.8100004196167,4.17958219145476E-08,-1.90852873060976E-07,4.72085565084157E-12,-23.8005466461182,61.2423858642578,0.001678886357695,-0.596735239028931,0,0
669,18.6134255144425,0,0,9.8100004196167,9.26518737287552E-08,-1.89553887253169E-07,1.66821695346542E-11,-23.8005466461182,61.2423858642578,0.001678886357695,-0.596735239028931,0,0
670,18.623425514219,0,0,9.8100004196167,1.30879797666239E-07,-1.82575931262363E-07,5.33977896621796E-12,-23.8005466461182,61.2423858642578,0.001678886357695,-0.596735239028931,0,0
671,18.6334255139955,0,0,9.8100004196167,0,0,0,-23.8005466461182,61.2423858642578,0.001678886357695,-0.596735239028931,0,0
672,18.6434255137719,0,0,9.8100004196167,3.77860409628283E-08,6.97778901326274E-09,-1.80129609145263E-12,-23.8005466461182,61.2423858642578,0.001678886357695,-0.596735239028931,0,0
673,18.6534255135484,0,0,9.8100004196167,7.57374749582596E-08,1.39561242562536E-08,4.7159541896602E-15,-23.8005466461182,61.2423858642578,0.001678886357695,-0.596735239028931,0,0
674,18.6634255133249,0,0,9.8100004196167,1.13712786742326E-07,2.09344914736675E-08,4.81089126869172E-13,-23.8005466461182,61.2423858642578,0.001678886357695,-0.596735239028931,0,0
675,18.6734255131014,0,0,9.8100004196167,1.40188546993159E-07,3.3590694670238E-08,1.96591636199284E-12,-23.8005466461182,61.2423858642578,0.001678886357695,-0.596735239028931,0,0
676,18.6834255128779,0,0,9.8100004196167,1.66614412933086E-07,4.62473792595119E-08,1.46063760045334E-12,-23.8005466461182,61.2423858642578,0.001678886357695,-0.596735239028931,0,0
677,18.6934255126544,0,0,9.8100004196167,1.93033159234801E-07,5.89040460852175E-08,1.31903667675848E-12,-23.8005466461182,61.2423858642578,0.001678886357695,-0.596735239028931,0,0
678,18.7034255124308,0,0,9.8100004196167,2.05272556286218E-07,6.59417409565322E-08,1.64190633745315E-12,-23.8005466461182,61.2423858642578,0.001678886357695,-0.596735239028931,0,0
679,18.7134255122073,0,0,9.8100004196167,2.05411666343025E-07,6.73550601959505E-08,1.15395366873106E-12,-23.8005466461182,61.2423858642578,0.001678886357695,-0.596735239028931,0,0
680,18.7234255119838,0,0,9.8100004196167,2.05489101290368E-07,6.87678749500265E-08,3.85417446655684E-13,-23.8005466461182,61.2423858642578,0.001678886357695,-0.596735239028931,0,0
681,18.7334255117603,0.239971294999123,0.002501909155399,9.82068157196045,1.07869191197096E-05,-0.000148072242155,0.0003997705644,-23.8005218505859,61.2423858642578,0.001679954468273,-0.596509337425232,9.56226431299001E-05,1.92617098946357E-05
682,18.7434255115368,27.2229328155518,-0.076641470193863,9.56054401397705,-2.38762186199892E-06,0.00705583859235,0.000175104665686,-23.7977752685547,61.2423515319824,0.001656265230849,-0.59640896320343,-0.003961509559304,1.78902846528217E-05
683,18.7534255113133,26.0020294189453,0.110625401139259,9.65798377990723,-2.89817876364395E-06,0.011426971293986,8.83024331415072E-05,-23.7924289703369,61.2422981262207,0.001617851201445,-0.596358478069305,-0.010511660948396,1.62233136506984E-05
684,18.7634255110897,24.4051761627197,-0.066031895577908,9.70552539825439,-2.51933306572027E-06,0.014300382696092,5.16268555657007E-05,-23.7846431732178,61.2422142028809,0.001569785992615,-0.596328914165497,-0.018694227561355,1.47722612382495E-05
685,18.7734255108662,21.3452224731445,0.062104355543852,9.75697422027588,-1.60337663146493E-06,0.015620023012161,3.36762132064905E-05,-23.7747230529785,61.2421112060547,0.001517448341474,-0.596309244632721,-0.027655433863402,1.3845799912815E-05
686,18.7834255106427,19.6277332305908,-0.035796210169792,9.77829074859619,-1.03142815532919E-06,0.016126470640302,2.11493861570489E-05,-23.7628421783447,61.2419891357422,0.0014632033417,-0.596297144889832,-0.036889851093292,1.32479535750463E-05
687,18.7934255104192,11.6283798217773,0.000937944685575,9.86456775665283,-8.56967631079897E-07,0.014244940131903,1.69370377989253E-05,-23.7497959136963,61.2418556213379,0.001415328937583,-0.596287429332733,-0.045051924884319,1.27499906739104E-05
688,18.8034255101957,19.4101810455322,0.001908048056066,9.76780509948731,-8.73808858159464E-07,0.014964899979532,2.91163064503053E-06,-23.7348136901855,61.24169921875,0.001365051255561,-0.596285879611969,-0.0536238104105,1.22479350466165E-05
689,18.8134255099721,15.3518390655518,-0.040344543755055,9.82322597503662,1.55127088419249E-06,0.014105759561062,3.07661412080051E-06,-23.7182960510254,61.2415237426758,0.001317749032751,-0.596284031867981,-0.061710756272078,1.31349324874464E-05
690,18.8234255097486,12.8524131774902,0.013633226044476,9.84030628204346,4.84526538002683E-07,0.012724283151329,4.69824908577721E-06,-23.7004928588867,61.2413368225098,0.00127502437681,-0.596281349658966,-0.068998567759991,1.34094507302507E-05
691,18.8334255095251,12.7735443115234,0.012800237163901,9.83320617675781,-1.27442334019179E-07,0.01154241990298,3.05156663671369E-06,-23.6814155578613,61.2411346435547,0.001236305222847,-0.596279501914978,-0.075610190629959,1.33343100969796E-05
692,18.8434255093016,7.01398038864136,0.032852180302143,9.88213634490967,6.43662588117877E-07,0.009056502953172,5.08304992763442E-06,-23.6616382598877,61.2409324645996,0.001205787644722,-0.596276760101318,-0.080801136791706,1.36990583996521E-05
693,18.8534255090781,11.8556985855103,-0.036771528422833,9.81671810150147,-3.64567966926188E-07,0.008336017839611,-7.95820596977137E-06,-23.6406764984131,61.2407112121582,0.001177711412311,-0.596281111240387,-0.085575439035893,1.34967931444407E-05
694,18.8634255088546,6.6754298210144,0.029317498207092,9.86484622955322,4.21612185164122E-07,0.006405849475414,-4.64467884739861E-05,-23.619047164917,61.2404861450195,0.001156158396043,-0.596307992935181,-0.089250080287457,1.37789966174751E-05
695,18.873425508631,9.6965856552124,-0.019250251352787,9.825270652771,6.71705038257642E-07,0.005529684014618,2.36468968068948E-05,-23.5964527130127,61.2402534484863,0.001137695275247,-0.596294164657593,-0.092419281601906,1.41423624882009E-05
696,18.8834255084075,6.17595863342285,0.064104363322258,9.84710311889648,7.18396506727004E-07,0.00406463816762,9.64292121352628E-05,-23.5732383728027,61.2400131225586,0.001123962341808,-0.59623920917511,-0.094748377799988,1.44635714605101E-05
697,18.893425508184,7.91780853271484,-0.077775612473488,9.82680797576904,-1.85343765224388E-06,0.003171916585416,-6.14763412158936E-05,-23.5492382049561,61.2397651672363,0.001113243051805,-0.596274197101593,-0.096558377146721,1.34604506456526E-05
698,18.9034255079605,5.99646854400635,0.062244385480881,9.83411121368408,1.33900516630092E-06,0.002147954422981,-0.00015831112978,-23.52463722229,61.2395095825195,0.001105956966057,-0.59636515378952,-0.097787812352181,1.43816041600076E-05
699,18.913425507737,6.71780061721802,-0.050257723778486,9.82516098022461,1.8954831375595E-06,0.001373474951833,4.152533801971E-05,-23.4993667602539,61.2392463684082,0.001101341214962,-0.596341192722321,-0.098580114543438,1.54268836922711E-05
700,18.9234255075135,5.35709857940674,0.015577709302306,9.82823371887207,1.5896840750429E-06,0.000545962480828,0.000104651335278,-23.4735641479492,61.2389793395996,0.001099472050555,-0.596281230449677,-0.09889430552721,1.62342821568018E-05
701,18.9334255072899,6.15703821182251,0.023903209716082,9.81769847869873,-1.54346821545914E-06,1.30260062292109E-07,-2.70806904154597E-05,-23.4471454620361,61.2387046813965,0.00109943386633,-0.596281230449677,-0.09889430552721,1.62342821568018E-05
702,18.9434255070664,4.71747636795044,-0.031076500192285,9.82479381561279,-6.10789300026227E-07,-0.000676338560879,-6.28065026830882E-05,-23.4202575683594,61.2384262084961,0.001101684523746,-0.596332728862762,-0.098504982888699,1.50887935888022E-05
703,18.9534255068429,5.65730285644531,-0.021292762830854,9.81293487548828,-1.01313696632133E-06,-0.00105569139123,-9.22942490433343E-06,-23.3928050994873,61.2381401062012,0.001105194096453,-0.596338152885437,-0.097903929650784,1.45172989505227E-05
704,18.9634255066194,4.25640201568604,0.044131673872471,9.82073879241943,-2.71053352207673E-07,-0.001578201074153,4.15078875448671E-06,-23.3649291992187,61.237850189209,0.001110496465117,-0.596335649490356,-0.096995510160923,1.4358050066221E-05
705,18.9734255063959,5.21740245819092,-0.065869905054569,9.80966854095459,-1.09451980279118E-06,-0.001825540908612,-9.82278015726479E-06,-23.3365325927734,61.2375526428223,0.00111663818825,-0.596341192722321,-0.095950491726399,1.37403867483954E-05
706,18.9834255061724,3.89560103416443,0.080383367836475,9.81692790985107,-9.23171285194258E-07,-0.002223388524726,-1.26556706163683E-05,-23.3077487945557,61.2372550964355,0.001124114962295,-0.596348583698273,-0.094680078327656,1.32235554701765E-05
707,18.9934255059488,4.87654733657837,-0.02940952591598,9.80626773834229,1.3591851484307E-06,-0.002363352570683,-1.19922806334216E-05,-23.2784786224365,61.2369499206543,0.001132011413574,-0.596355378627777,-0.093320868909359,1.4013702639204E-05
708,19.0034255057253,3.61594676971436,-0.002525576855987,9.81299209594727,-8.51807868684773E-08,-0.002662845188752,-1.13898659037659E-05,-23.2488498687744,61.236644744873,0.001140785170719,-0.596362113952637,-0.091790907084942,1.39753492476302E-05
709,19.0134255055018,4.51562213897705,0.006842444185168,9.80633640289307,-3.69093811514176E-07,-0.002716090762988,-1.29769241539179E-05,-23.2187690734863,61.2363319396973,0.001149902353063,-0.596369624137878,-0.090233623981476,1.37756633193931E-05
710,19.0234255052783,3.39540386199951,-0.004814570769668,9.81239414215088,-4.98915426305757E-07,-0.00293742492795,-1.40660331453546E-05,-23.1883506774902,61.2360153198242,0.001159782405011,-0.596377551555633,-0.088560231029987,1.35023956318037E-05
711,19.0334255050548,4.31546926498413,-0.035235915333033,9.80308532714844,1.89105293202374E-07,-0.002924832282588,-1.38990162668051E-05,-23.1575050354004,61.2356910705566,0.001169624272734,-0.596385419368744,-0.086879998445511,1.36229255076614E-05
712,19.0434255048312,3.15440917015076,0.032685950398445,9.81066608428955,-9.97731945062697E-07,-0.003085291711614,-1.24086509458721E-05,-23.1263427734375,61.2353630065918,0.001180000253953,-0.596392571926117,-0.085124641656876,1.30618800540105E-05
713,19.0534255046077,4.09446287155151,0.002473002299666,9.80176448822022,1.77349932073412E-06,-0.003020729403943,-1.03440333987237E-05,-23.0947723388672,61.2350387573242,0.001190147362649,-0.59639835357666,-0.083376117050648,1.40867059599259E-05
714,19.0634255043842,3.01422524452209,-0.008768255822361,9.80953121185303,-4.64039260350546E-08,-0.003135422244668,-1.26537961477879E-05,-23.0629024505615,61.2347068786621,0.001200675964355,-0.596405684947968,-0.081586606800556,1.40705778903794E-05
715,19.0734255041607,3.91386699676514,0.000600273080636,9.80112171173096,-9.30022792999807E-07,-0.003032522974536,-1.22491665024427E-05,-23.0306415557861,61.2343673706055,0.001210861140862,-0.596412599086762,-0.079844906926155,1.35475984279765E-05
716,19.0834255039372,2.89362668991089,-0.010016832500696,9.80873775482178,-5.63506660000712E-07,-0.003112327773124,-1.06005991256097E-05,-22.9980926513672,61.2340316772461,0.001221313490532,-0.596418678760529,-0.078062228858471,1.32331124405027E-05
717,19.0934255037137,3.79286098480225,0.039349887520075,9.80113983154297,7.18820217571192E-07,-0.002980453660712,-1.21925568237202E-05,-22.9651679992676,61.2336883544922,0.001231384230778,-0.596425712108612,-0.076361507177353,1.36543967528269E-05
718,19.1034255034901,2.77345848083496,-0.051262874156237,9.807541847229,1.75019067683024E-06,-0.003035621251911,-1.19432961582788E-05,-22.9319648742676,61.2333450317383,0.0012415695237,-0.596432387828827,-0.074619814753532,1.46661959661287E-05
719,19.1134255032666,3.67269968986511,-0.001895979396068,9.79960918426514,-1.83667943076671E-08,-0.002883607754484,-1.29995360111934E-05,-22.8983974456787,61.2329902648926,0.001251182518899,-0.596440196037293,-0.072960078716278,1.46652837429428E-05
720,19.1234255030431,2.6920645236969,0.027900716289878,9.81085300445557,5.0960591124749E-07,-0.002920200349763,-1.02752001112094E-05,-22.8645629882813,61.2326393127441,0.001261215191334,-0.596446037292481,-0.071293510496616,1.49646557474625E-05
721,19.1334255028196,3.53214836120605,-0.003352499334142,9.79655456542969,3.8724650153199E-07,-0.002756058005616,-1.0808750630531E-05,-22.8303737640381,61.2322845458984,0.001270332257263,-0.596452295780182,-0.069715738296509,1.51942003867589E-05
722,19.1434255025961,2.65152096748352,0.027484903112054,9.80952739715576,-5.69322480714618E-07,-0.002779978327453,-1.15205039037392E-05,-22.7959232330322,61.2319259643555,0.001279716496356,-0.596458911895752,-0.068117469549179,1.4875963643135E-05
723,19.1534255023726,3.43162941932678,-0.004392644856125,9.79991054534912,1.15962120617041E-06,-0.002607631729916,-1.14320328066242E-05,-22.7611274719238,61.2315673828125,0.001288490253501,-0.596465349197388,-0.066628493368626,1.55480265675578E-05
724,19.163425502149,2.61184167861938,-0.052926417440176,9.80780220031738,2.73065722922183E-07,-0.002623666776344,-1.14953027150477E-05,-22.72607421875,61.231201171875,0.001297340379097,-0.596472144126892,-0.065125852823258,1.57120957737789E-05
725,19.1734255019255,3.37071871757507,0.034981317818165,9.80015468597412,-6.47209390081116E-07,-0.002445903373882,-1.12332782009617E-05,-22.6906833648682,61.230827331543,0.00130558013916,-0.596478462219238,-0.06371883302927,1.53485234477557E-05
726,19.183425501702,2.53094744682312,-0.013760898262262,9.80763626098633,6.95873836775718E-07,-0.002458821050823,-8.78073842613958E-06,-22.6550407409668,61.2304573059082,0.001313857967034,-0.59648334980011,-0.062311813235283,1.57527938426938E-05
727,19.1934255014785,3.3106746673584,-0.005640497431159,9.80037689208984,-3.78637281528427E-07,-0.002279971260577,-9.47540866036434E-06,-22.6190700531006,61.2300834655762,0.001321525545791,-0.596488893032074,-0.061007246375084,1.55416691995924E-05
728,19.203425501255,2.53008341789246,0.026237348094583,9.80774879455566,-4.62917313370781E-07,-0.002289863536134,-1.01610039564548E-05,-22.5828456878662,61.2297058105469,0.001329231192358,-0.596494615077972,-0.059695851057768,1.52826287376229E-05
729,19.2134255010315,3.25024700164795,-0.006264497060329,9.80058765411377,6.00938221850811E-07,-0.002111594425514,-8.77429738466162E-06,-22.5462989807129,61.2293243408203,0.001336326589808,-0.596499681472778,-0.05848690494895,1.56320529640652E-05
730,19.2234255008079,2.49050378799438,-0.054174177348614,9.80827713012695,6.75065962241206E-07,-0.002120425924659,-8.54427798913093E-06,-22.50950050354,61.2289390563965,0.001343498239294,-0.596504747867584,-0.057271134108305,1.60238960233983E-05
731,19.2334255005844,3.2090175151825,0.073315389454365,9.80075550079346,8.25097856704815E-07,-0.001946316333488,-7.43876171327429E-06,-22.4723854064941,61.2285537719727,0.001350059523247,-0.596508741378784,-0.056157812476158,1.65008605108596E-05
732,19.2434255003609,2.47012186050415,-0.054382011294365,9.80763244628906,-8.00839586645452E-07,-0.001954324543476,-8.03744296717923E-06,-22.4350242614746,61.2281608581543,0.001356620807201,-0.596513450145721,-0.055037662386894,1.60464860528009E-05
733,19.2534255001374,3.16906976699829,0.032901510596275,9.80129432678223,1.19099333062422E-07,-0.001783474348485,-6.17972045802162E-06,-22.397346496582,61.2277717590332,0.001362609793432,-0.596516966819763,-0.054013133049011,1.61180578288622E-05
734,19.2634254999139,2.44935488700867,-0.014592145569623,9.80812168121338,-3.52436302364367E-07,-0.001795517047867,-5.16556019647396E-06,-22.3594226837158,61.2273750305176,0.001368637080304,-0.596519887447357,-0.052981775254011,1.59188657562481E-05
735,19.2734254996903,3.16915106773376,-0.007096005603671,9.80178546905518,2.8323708534117E-07,-0.001631256542169,-5.02654847878148E-06,-22.3211860656738,61.2269744873047,0.00137413025368,-0.596522748470306,-0.052052870392799,1.60838480951497E-05
736,19.2834254994668,2.38862013816833,0.024781316518784,9.80825614929199,3.44982453270859E-07,-0.001651657512411,-4.71023713544128E-06,-22.2827091217041,61.2265739440918,0.001379661494866,-0.596525490283966,-0.051103472709656,1.6283924196614E-05
737,19.2934254992433,3.06884741783142,-0.008136766962707,9.80235290527344,2.70100855459532E-07,-0.001497200923041,-4.8499096010346E-06,-22.2439270019531,61.2261695861816,0.001384696923196,-0.596528172492981,-0.050242867320776,1.64411412697518E-05
738,19.3034254990198,2.42832350730896,0.025197990238667,9.80867290496826,-4.53917493814515E-07,-0.001519864774309,-5.3861895139562E-06,-22.2049045562744,61.2257652282715,0.001389808603562,-0.596531271934509,-0.049382265657187,1.61837688210653E-05
739,19.3134254987963,2.98898553848267,-0.048967104405165,9.80251216888428,8.98829568996007E-07,-0.001373340492137,-6.07085939918761E-06,-22.1655807495117,61.2253532409668,0.001394424354658,-0.596534788608551,-0.048589963465929,1.67016914929263E-05
740,19.3234254985728,2.42763447761536,0.065196193754673,9.80874156951904,1.93557951888579E-07,-0.001398719381541,-5.11903863298357E-06,-22.1260185241699,61.2249450683594,0.001399116474204,-0.59653776884079,-0.047790832817555,1.68150054378202E-05
741,19.3334254983492,2.9687237739563,-0.049174975603819,9.80108165740967,-1.63223859317441E-07,-0.001259152893908,-6.62287175146048E-06,-22.0861568450928,61.2245292663574,0.001403160043992,-0.5965416431427,-0.047060001641512,1.67246726050507E-05
742,19.3434254981257,2.40822172164917,-0.015007403679192,9.81301403045654,-1.39954408950871E-07,-0.001284296740778,-6.44172405372956E-06,-22.0460567474365,61.2241096496582,0.001407699543051,-0.596545219421387,-0.046329170465469,1.66474437719444E-05
743,19.3534254979022,2.94765067100525,0.030612785369158,9.79926300048828,1.63315050372148E-08,-0.001153531600721,-5.10771087647299E-06,-22.0056629180908,61.223690032959,0.001411399804056,-0.59654825925827,-0.045659810304642,1.66591689776396E-05
744,19.3634254976787,2.36799478530884,-0.015423523262143,9.81310176849365,8.13670169463876E-07,-0.001179390004836,-5.80231107960572E-06,-21.9650344848633,61.2232666015625,0.001415595994331,-0.596551477909088,-0.044990453869104,1.71279516507639E-05
745,19.3734254974552,2.90785193443298,-0.009801116771996,9.79935932159424,-7.77897568582375E-08,-0.001054158317856,-5.26174608239671E-06,-21.9241142272949,61.2228393554688,0.001418952946551,-0.596554458141327,-0.044389396905899,1.70857692864956E-05
746,19.3834254972317,2.38736891746521,0.02478277310729,9.81313896179199,-8.10901479297854E-09,-0.001080040587112,-4.93457173433853E-06,-21.8829555511475,61.222412109375,0.001422805711627,-0.596557199954987,-0.043774679303169,1.70832936419174E-05
747,19.3934254970081,2.84723949432373,0.029572304338217,9.79984378814697,-1.59210699735013E-07,-0.000962940102909,-5.27030852026655E-06,-21.8415126800537,61.221981048584,0.001425857539289,-0.596560657024383,-0.043221436440945,1.69944323715754E-05
748,19.4034254967846,2.40800881385803,-0.055004417896271,9.81317043304443,-2.17610079289443E-07,-0.000985926017165,-5.66317748962319E-06,-21.7998313903809,61.2215461730957,0.001429405179806,-0.596563816070557,-0.042654529213905,1.68721035151975E-05
749,19.4134254965611,2.82747340202332,-0.01063350122422,9.79991149902344,-1.6912684941417E-07,-0.000881955842488,-4.94687674290617E-06,-21.7578678131103,61.2211074829102,0.001432151766494,-0.596566736698151,-0.042149096727371,1.67772759596119E-05
750,19.4234254963376,2.40700054168701,0.024991439655423,9.81168556213379,-3.62201930670381E-08,-0.000899158068933,-4.11517066822853E-06,-21.7156639099121,61.2206687927246,0.001435241661966,-0.596568942070007,-0.04163683205843,1.67583057191223E-05
751,19.4334254961141,2.74731397628784,-0.011466244235635,9.80421447753906,4.21808934447654E-08,-0.000809911929537,-3.37535016114998E-06,-21.6731853485107,61.2202224731445,0.001437950064428,-0.59657096862793,-0.041172377765179,1.67838406923693E-05
752,19.4434254958906,2.44683599472046,0.025408079847694,9.80864524841309,3.45079854469077E-07,-0.000818080967292,-1.57215299623203E-06,-21.6304626464844,61.2197799682617,0.001440696651116,-0.596571922302246,-0.040701095014811,1.6982237866614E-05
753,19.453425495667,2.72716283798218,-0.011674383655191,9.80579566955566,-5.96000973018818E-07,-0.000745023018681,-3.0879584755894E-06,-21.5874710083008,61.2193298339844,0.001443214365281,-0.596573531627655,-0.040277622640133,1.66419831657549E-05
754,19.4634254954435,2.42710709571838,-0.014797980897129,9.80831718444824,-4.18068566432339E-07,-0.000743779004551,-1.81181917469075E-06,-21.5442333221436,61.218879699707,0.001445732079446,-0.596574485301971,-0.039847321808338,1.64031625899952E-05
755,19.47342549522,2.64660954475403,0.027490561828017,9.80627155303955,1.90060404747783E-07,-0.000688682484906,-2.05592095881002E-06,-21.5007343292236,61.2184257507324,0.001448059105314,-0.596575558185577,-0.03945117071271,1.65129058586899E-05
756,19.4834254949965,2.5069682598114,-0.013964951969683,9.8079137802124,-3.99356622438063E-07,-0.000677731644828,-1.44766124776652E-06,-21.4569835662842,61.2179718017578,0.001450347830541,-0.596576511859894,-0.039061848074198,1.62846645253012E-05
757,19.493425494773,2.58648467063904,0.026865914463997,9.80673027038574,8.20968679704492E-08,-0.000635835167486,-2.49576601163426E-06,-21.4129753112793,61.2175140380859,0.001452484051697,-0.596577942371368,-0.038699850440025,1.63326567417243E-05
758,19.5034254945494,2.50684523582458,-0.013964811339974,9.80756282806397,3.71475894489492E-09,-0.000619330792688,-2.67760810856998E-06,-21.3687171936035,61.2170524597168,0.001454544020817,-0.596579492092133,-0.03834468126297,1.63358236022759E-05
759,19.5134254943259,2.54678559303284,-0.013548331335187,9.80755043029785,-6.08873619967198E-07,-0.000588379974943,-2.34167237067595E-06,-21.3242053985596,61.2165908813477,0.001456527621485,-0.596580743789673,-0.038010001182556,1.59879091370385E-05
760,19.5234254941024,2.48631644248962,0.025824928656221,9.80760478973389,7.28433235508419E-07,-0.000569084659219,-3.37574715558731E-06,-21.2794456481934,61.2161254882813,0.001458434970118,-0.596582651138306,-0.03768215328455,1.64065240824129E-05
761,19.5334254938789,2.52667784690857,-0.013756409287453,9.80759143829346,-9.29828331663884E-07,-0.000541848945431,-3.78843833459541E-06,-21.234432220459,61.2156562805176,0.001460266066715,-0.596584916114807,-0.037374794483185,1.58751809067326E-05
762,19.5434254936554,2.52704405784607,-0.053754176944494,9.80760478973389,-2.47302239131386E-07,-0.000522231857758,-3.44206500813016E-06,-21.1891689300537,61.2151832580566,0.001462020794861,-0.59658682346344,-0.037081096321344,1.57348094944609E-05
763,19.5534254934319,2.48574805259705,0.065822809934616,9.80764293670654,-7.47182411942049E-07,-0.000498987734318,-2.4266362288472E-06,-21.1436576843262,61.2147102355957,0.001463699270971,-0.596588253974915,-0.036794226616621,1.53075707203243E-05
764,19.5634254932083,2.52694725990295,-0.053754050284624,9.80762958526611,6.97931056947709E-07,-0.000479641894344,-2.91648643724329E-06,-21.0978927612305,61.2142333984375,0.001465301495045,-0.596589863300324,-0.036514189094305,1.57085469254525E-05
765,19.5734254929848,2.48565578460693,0.065823093056679,9.8080472946167,7.07598417193367E-07,-0.000457995833131,-2.71602880275168E-06,-21.0518817901611,61.213752746582,0.001466865534894,-0.596591413021088,-0.036254640668631,1.61149018822471E-05
766,19.5834254927613,2.48686027526855,-0.054170355200768,9.807297706604,-1.82439663376499E-07,-0.000439516268671,-2.58063073488302E-06,-21.0056228637695,61.2132682800293,0.001468315138482,-0.596592903137207,-0.035995095968247,1.6011332263588E-05
767,19.5934254925378,2.46598792076111,0.025617094710469,9.80807971954346,-5.81096877283471E-08,-0.000420786236646,-1.75909531208163E-06,-20.9591159820557,61.2127876281738,0.001469726557843,-0.596593916416168,-0.035756036639214,1.59786723088473E-05
768,19.6034254923143,2.5263614654541,-0.013755943626165,9.80805587768555,-4.01559901774817E-07,-0.00040341008571,-3.64365178029402E-06,-20.9123573303223,61.2122993469238,0.00147109979298,-0.596596002578735,-0.035523813217878,1.57498961925739E-05
769,19.6134254920908,2.44591164588928,0.025408944115043,9.80773162841797,-3.4107739566025E-07,-0.000385252467822,-3.1751014830661E-06,-20.8653564453125,61.2118110656738,0.00147239677608,-0.596597909927368,-0.035305246710777,1.55555899254978E-05
770,19.6234254918672,2.48628973960876,-0.014172256924212,9.80771636962891,4.12417676898258E-07,-0.000367621512851,-3.78834943148831E-06,-20.8181056976318,61.2113151550293,0.001473617507145,-0.596599996089935,-0.035093508660793,1.57932390720816E-05
771,19.6334254916437,2.46625590324402,-0.014380471780896,9.80811786651611,-1.91599397680875E-07,-0.000352391827619,-2.0642460185627E-06,-20.7706108093262,61.210823059082,0.001474800053984,-0.596601247787476,-0.034888602793217,1.56840942509007E-05
772,19.6434254914202,2.46580672264099,0.025617394596338,9.80812931060791,-4.13955518752118E-07,-0.000337298348313,-3.21860329677293E-06,-20.7228679656982,61.2103271484375,0.001475944533013,-0.596603035926819,-0.034697357565165,1.54480603669072E-05
773,19.6534254911967,2.48619031906128,-0.014172052964568,9.80774021148682,3.47610864537273E-07,-0.00032175637898,-3.78457798433374E-06,-20.674877166748,61.2098274230957,0.001477012643591,-0.59660530090332,-0.03451294451952,1.56485421030084E-05
774,19.6634254909732,2.4457471370697,0.025409316644073,9.80815315246582,-5.54223277049459E-07,-0.000306999922032,-3.7747108763142E-06,-20.6266422271729,61.2093238830566,0.001478042569943,-0.596607506275177,-0.034342188388109,1.53323362610536E-05
775,19.6734254907497,2.48613214492798,-0.014171982184053,9.80813884735107,-4.59137623920469E-07,-0.000294217112241,-3.14783937938046E-06,-20.578161239624,61.2088203430176,0.001479034428485,-0.596609234809876,-0.034171435981989,1.50703262988827E-05
776,19.6834254905261,2.44610619544983,-0.014588447287679,9.80816745758057,-5.75472199670912E-07,-0.000280422565993,-3.73611055692891E-06,-20.5294361114502,61.2083129882813,0.001479988102801,-0.596611499786377,-0.034007508307695,1.4741875929758E-05
777,19.6934254903026,2.46566390991211,0.025617759674788,9.8081636428833,3.12425640913716E-07,-0.000268173927907,-3.70073121302994E-06,-20.4804630279541,61.2078056335449,0.001480903592892,-0.596613645553589,-0.033864077180624,1.49221777974162E-05
778,19.7034254900791,2.46605348587036,-0.014379943720996,9.80778884887695,1.14132078010698E-07,-0.000255530350842,-4.91447826789226E-06,-20.431245803833,61.2072944641113,0.001481742830947,-0.596616327762604,-0.033706981688738,1.49892039189581E-05
779,19.7134254898556,2.44644808769226,-0.054585821926594,9.80856609344482,6.46944840809738E-07,-0.000244709197432,-5.54710004507797E-06,-20.3817844390869,61.2067756652832,0.001482582069002,-0.596619665622711,-0.033570379018784,1.53617656906135E-05
780,19.7234254896321,2.44517493247986,0.065407700836659,9.80781269073486,-5.88261059419892E-07,-0.000233746352023,-3.65270102520299E-06,-20.3320789337158,61.2062568664551,0.001483345055021,-0.596621751785278,-0.033433772623539,1.50259029396693E-05
781,19.7334254894085,2.44640374183655,-0.054585687816143,9.80857944488525,5.23109122241294E-07,-0.000222059097723,-2.32553384194034E-06,-20.2821273803711,61.2057342529297,0.001484107924625,-0.596622943878174,-0.033310830593109,1.53264354594285E-05
782,19.743425489185,2.46513175964355,0.065616175532341,9.80819320678711,5.97987764194841E-07,-0.000212557308259,-2.02871592591691E-06,-20.2319297790527,61.2052116394043,0.001484832726419,-0.596624255180359,-0.033187888562679,1.5669698768761E-05
783,19.7534254889615,2.46676731109619,-0.054377011954784,10.5177307128906,6.47232184292079E-07,-0.000238273714785,-1.89945035344863E-06,-20.181489944458,61.2046852111816,0.001556472736411,-0.596625328063965,-0.033051282167435,1.60411655087955E-05
784,19.763425488738,2.40543293952942,0.024993676692247,9.68159103393555,1.31990134377702E-07,-0.000224959192565,-1.06840820990328E-06,-20.1308078765869,61.204158782959,0.001615409855731,-0.596625864505768,-0.032921511679888,1.61171428771922E-05
785,19.7734254885145,2.50585532188416,-0.01396285649389,9.70098686218262,-2.27882722469985E-07,-0.000193797095562,-1.81058078396745E-06,-20.0798759460449,61.2036247253418,0.001663589384407,-0.596625864505768,-0.032921511679888,1.61171428771922E-05
786,19.783425488291,2.34541869163513,0.024368857964873,9.7171106338501,-5.66804260415665E-07,-0.000201920687687,7.49284311041265E-07,-20.0287094116211,61.2030944824219,0.001702613779344,-0.596626400947571,-0.032696112990379,1.56621681526303E-05
787,19.7934254880674,2.52583289146423,-0.013754645362496,9.72997856140137,3.50024407680394E-07,-0.000158486131113,-2.58017990972803E-07,-19.9772911071777,61.2025566101074,0.001733779907227,-0.596626400947571,-0.032696112990379,1.56621681526303E-05
788,19.8034254878439,2.34581732749939,-0.015629032626748,9.74496459960938,4.65966365936765E-07,-0.00019708678883,6.75133787808591E-06,-19.9256401062012,61.202018737793,0.001758575439453,-0.596622824668884,-0.03249803930521,1.6127603885252E-05
789,19.8134254876204,1.12501215934753,0.051663544028998,9.76397609710693,1.13278724711563E-06,-0.00050497596385,-4.15105860156473E-05,-19.8738746643066,61.2014846801758,0.00177883147262,-0.596646547317505,-0.032211169600487,1.67900798260234E-05
790,19.8234254873969,1.0057692527771,-0.029581569135189,9.77701854705811,-7.20950538379839E-07,-0.000901640218217,-2.06047898245743E-05,-19.8220119476318,61.2009391784668,0.001795844989829,-0.596658408641815,-0.031685244292021,1.63836211868329E-05
791,19.8334254871734,-5.07455015182495,-0.052898298949003,9.83289241790772,-6.98369035490032E-07,-0.002670072484761,-1.2529573723441E-05,-19.7706546783447,61.2004051208496,0.001814880291931,-0.596665561199188,-0.030155284330249,1.59873870870797E-05
792,19.8434254869499,1.48441576957703,0.055412545800209,9.76500415802002,9.59337967287866E-07,-0.002323118736967,1.45402091220603E-05,-19.7191505432129,61.1998672485352,0.001829490647651,-0.596657156944275,-0.028823396191001,1.65327455761144E-05
793,19.8534254867263,-2.45563721656799,0.014383658766747,9.80506038665772,5.26708170411894E-08,-0.002926321933046,3.01191062135331E-06,-19.6678943634033,61.199333190918,0.001843490521424,-0.596655547618866,-0.027150001376867,1.656209678913E-05
794,19.8634254865028,1.74472141265869,-0.021875886246562,9.7676362991333,-5.93209790622495E-07,-0.002350750379264,9.63937691267347E-06,-19.6164608001709,61.1987991333008,0.001853332505561,-0.596650063991547,-0.025804452598095,1.62196683959337E-05
795,19.8734254862793,-2.73613953590393,0.011468425393105,9.81382179260254,6.97891167078524E-08,-0.002971440786496,1.14014519567718E-05,-19.5653038024902,61.1982650756836,0.001863441430032,-0.596643626689911,-0.024103736504912,1.62568030646071E-05
796,19.8834254860558,2.18461036682129,-0.057292316108942,9.76831436157227,5.52888366200932E-08,-0.002183142350987,1.03236989161815E-05,-19.5139274597168,61.1977272033691,0.001869468600489,-0.596637666225433,-0.022846981883049,1.62860760610783E-05
797,19.8934254858323,-2.3770546913147,0.055215395987034,9.81545925140381,3.61194963716116E-07,-0.002689123386517,3.9638493944949E-06,-19.4627895355225,61.1971969604492,0.001875953632407,-0.596635341644287,-0.021303359419108,1.6492112990818E-05
798,19.9034254856088,2.40374040603638,-0.015003839507699,9.77176761627197,-7.55785890760308E-07,-0.001836222247221,4.26773294748273E-06,-19.4114112854004,61.1966590881348,0.001878700219095,-0.596633017063141,-0.020251510664821,1.60582294483902E-05
799,19.9134254853852,-2.13705682754517,0.017716743052006,9.81986141204834,-6.61105445942667E-07,-0.0023196360562,4.33706600233563E-06,-19.3602466583252,61.1961250305176,0.001882362295873,-0.596630573272705,-0.018926452845335,1.56785936269443E-05
800,19.9234254851617,2.6633608341217,-0.012296785600484,9.77330207824707,1.20398041758563E-07,-0.001431324519217,6.05450713919709E-06,-19.30881690979,61.1955909729004,0.001882438664325,-0.596626996994019,-0.018106831237674,1.57464673975483E-05
801,19.9334254849382,-1.87739896774292,0.020424285903573,9.82276248931885,1.62692103344853E-07,-0.001913728425279,1.18942421067914E-06,-19.2575759887695,61.1950569152832,0.001883735647425,-0.596626162528992,-0.017007170245051,1.58394523168681E-05
802,19.9434254847147,2.90347862243652,-0.049795530736446,9.7767448425293,8.40862639961415E-07,-0.001020420342684,2.65089715867362E-06,-19.2060432434082,61.1945190429688,0.001881790114567,-0.596624672412872,-0.016426604241133,1.63208205776755E-05
803,19.9534254844912,-1.65807485580444,0.062713198363781,9.82532787322998,9.0295299060017E-07,-0.001518415752798,1.78634047642845E-06,-19.1546764373779,61.1939888000488,0.001881332369521,-0.596623659133911,-0.015559170395136,1.68378901435062E-05
804,19.9634254842676,3.10284113883972,-0.007715166080743,9.77866077423096,-3.12686296410902E-07,-0.000633539981209,1.60398167281528E-06,-19.1030006408691,61.1934509277344,0.001877822796814,-0.596622884273529,-0.015190339647234,1.66585068654967E-05
805,19.9734254840441,-1.43743121623993,-0.014991699717939,9.82753276824951,-3.49646768427192E-07,-0.001153887598775,-1.80754261691618E-06,-19.0514698028564,61.1929130554199,0.001876029884443,-0.59662389755249,-0.014520981349051,1.64584234880749E-05
806,19.9834254838206,3.28310704231262,-0.045838721096516,9.78018569946289,-3.33064605229083E-07,-0.000287134462269,6.27735460057011E-07,-18.9996089935303,61.1923713684082,0.001871337881312,-0.596623420715332,-0.014363886788488,1.62675041792681E-05
807,19.9934254835971,-1.23838365077972,0.067086480557919,9.82937526702881,-3.00610651038369E-07,-0.000830749981105,1.69654427395471E-07,-18.9478721618652,61.1918334960938,0.001868553110398,-0.596623420715332,-0.013885773718357,1.60952586156782E-05
808,20.0034254833736,3.46301627159119,-0.043964434415102,9.78207683563232,5.39080588168872E-07,1.52228039951297E-05,1.29666921111493E-06,-18.8957901000977,61.191291809082,0.001863059937023,-0.596623420715332,-0.013885773718357,1.60952586156782E-05
809,20.0134254831501,-1.05802822113037,0.028962982818484,9.83008861541748,-3.75952737385887E-07,-0.000551261589862,-1.47679600104311E-06,-18.8438148498535,61.1907501220703,0.001859550480731,-0.596623420715332,-0.013585245236755,1.61887419380946E-05
810,20.0234254829265,3.62298345565796,-0.042298335582018,9.78357315063477,5.34396008333715E-07,0.000270897318842,6.39411211977858E-07,-18.7914772033691,61.1902046203613,0.001853485009633,-0.596623003482819,-0.013742339797318,1.64948269230081E-05
811,20.033425482703,-0.918456673622131,0.070418670773506,9.83158016204834,-1.04553627977566E-07,-0.000316754070809,5.1322604122106E-07,-18.7392311096191,61.1896629333496,0.001849555876106,-0.596622824668884,-0.013557924889028,1.64348548423732E-05
812,20.0434254824795,3.76299262046814,-0.040840711444616,9.7846794128418,-1.21763855531754E-06,0.000483371288283,8.64659796206979E-07,-18.6866092681885,61.1891136169434,0.001843185396865,-0.596622347831726,-0.013837962411344,1.57370741362683E-05
813,20.053425482256,-0.777583122253418,-0.008119311183691,9.83193206787109,4.30448864108257E-07,-0.000123433652334,-2.1919290702499E-06,-18.6340656280518,61.1885681152344,0.00183898920659,-0.596622347831726,-0.013837962411344,1.57370741362683E-05
814,20.0634254820325,3.90261960029602,0.00061497540446,9.78500652313232,-6.17142859482556E-07,0.000653793511447,2.92252281042238E-07,-18.5811309814453,61.1880149841309,0.001832389738411,-0.596623420715332,-0.014138490892947,1.56303867697716E-05
815,20.073425481809,-0.637538909912109,-0.006661544553936,9.83304595947266,-5.27292570495774E-07,3.25672845065128E-05,2.43212639361445E-07,-18.528263092041,61.1874656677246,0.001828079228289,-0.596623420715332,-0.014138490892947,1.56303867697716E-05
816,20.0834254815854,3.96269702911377,0.001239687087946,9.78572177886963,2.83517749721796E-07,0.000789044774137,5.12202973368403E-07,-18.4749946594238,61.1869087219238,0.001821441575885,-0.596622943878174,-0.014609773643315,1.54906065290561E-05
817,20.0934254813619,-0.477883070707321,0.035002321004868,9.83339309692383,1.34616891500627E-06,0.000154336725245,-1.08564847778325E-06,-18.4217777252197,61.1863555908203,0.001817130949348,-0.596622943878174,-0.014609773643315,1.54906065290561E-05
818,20.1034254811384,4.06279468536377,0.002281027846038,9.78641510009766,-5.02325008255866E-07,0.000890263996553,1.63268452979537E-06,-18.3681526184082,61.1857986450195,0.001810569665395,-0.59662252664566,-0.01521083060652,1.5974001144059E-05
819,20.1134254809149,-0.397344321012497,-0.004162452649325,9.83337593078613,-5.70045642689365E-07,0.000247125368332,-6.59742795505736E-07,-18.3145694732666,61.1852416992187,0.001806335407309,-0.596622943878174,-0.015347434207797,1.56474707182497E-05
820,20.1234254806914,4.18290615081787,0.003530563786626,9.78633499145508,2.22878625777412E-07,0.000966118881479,-1.29632255152501E-07,-18.2605686187744,61.1846809387207,0.001799850375392,-0.596622943878174,-0.015900678932667,1.57751874212408E-05
821,20.1334254804678,-0.336804360151291,-0.043535482138395,9.83374691009522,1.68640511333251E-07,0.000316106015816,-1.63738900482713E-06,-18.206600189209,61.1841201782227,0.001795730553567,-0.596623957157135,-0.016085093840957,1.58720795297995E-05
822,20.1434254802443,4.24345016479492,-0.03584249317646,9.78702163696289,-8.92863283752376E-07,0.001017952454276,8.78367174550476E-08,-18.1522083282471,61.1835479736328,0.001789436326362,-0.596623957157135,-0.016665659844875,1.53604814840946E-05
823,20.1534254800208,-0.217924430966377,0.077707409858704,9.83371734619141,-6.00370071879297E-07,0.000361688842531,-8.89962961991841E-07,-18.0978374481201,61.1829833984375,0.001785507192835,-0.596624433994293,-0.016877396032214,1.50166579260258E-05
824,20.1634254797973,4.2835865020752,-0.03542597219348,9.78733158111572,2.15092413213824E-07,0.001050600549206,-1.69493077351035E-07,-18.0430393218994,61.1824111938477,0.001779441838153,-0.596624493598938,-0.01747845299542,1.51399117385154E-05
825,20.1734254795738,-0.13695402443409,-0.001455257763155,9.83331108093262,-5.48360560514993E-07,0.000390447385143,3.83523371283445E-07,-17.9882564544678,61.1818389892578,0.001775703392923,-0.596624433994293,-0.017703849822283,1.48256740430952E-05
826,20.1834254793503,4.34330892562866,0.005196373444051,9.78763389587402,-3.93604238979606E-07,0.00106592499651,3.51077892446483E-06,-17.9330368041992,61.1812629699707,0.001769866910763,-0.596622407436371,-0.018311735242605,1.45995290949941E-05
827,20.1934254791267,-0.076815187931061,-0.000830484321341,9.83405685424805,3.6975376360715E-07,0.00040434897528,4.3106544467264E-07,-17.8778285980225,61.1806869506836,0.001766433706507,-0.596621990203857,-0.018530301749706,1.48112849274185E-05
828,20.2034254789032,4.40344953536987,0.00582102779299,9.78716659545898,-1.98145599483723E-07,0.001067030476406,2.73896193903056E-06,-17.8221778869629,61.1801071166992,0.00176086416468,-0.596620619297028,-0.019151849672198,1.46972679431201E-05
829,20.2134254786797,-0.036669906228781,-0.000413911155192,9.83328342437744,7.88741886026401E-07,0.000406268954976,3.15809097628517E-06,-17.7665309906006,61.1795234680176,0.001757621765137,-0.596618831157684,-0.019390905275941,1.51485492096981E-05
830,20.2234254784562,4.46400690078735,-0.033552303910256,9.78784275054932,1.22476046726661E-06,0.001058219815604,7.21278001947212E-06,-17.7104396820068,61.1789398193359,0.001752319280058,-0.596614718437195,-0.019991962239146,1.58488583110739E-05
831,20.2334254782327,-0.016945522278547,0.039792329072952,9.83365821838379,3.29606876903199E-07,0.000397942145355,3.17097760671459E-06,-17.6543483734131,61.178352355957,0.001749382005073,-0.596612751483917,-0.02021735906601,1.60370800585952E-05
832,20.2434254780092,4.52414464950562,-0.032927855849266,9.78737545013428,3.82120305175704E-07,0.001039042836055,5.20356343258754E-06,-17.5978088378906,61.1777610778809,0.001744346576743,-0.596609771251678,-0.020818416029215,1.62549458764261E-05
833,20.2534254777856,0.023609342053533,0.000211075181141,9.83326053619385,3.50167965734727E-07,0.000381545105483,5.62274453841383E-06,-17.5412635803223,61.1771697998047,0.001741638174281,-0.596606612205505,-0.021036980673671,1.64543907885673E-05
834,20.2634254775621,4.52386474609375,0.007069362327456,9.78807735443115,-6.0039262450573E-08,0.001014745561406,8.59697138366755E-06,-17.4842681884766,61.1765747070313,0.001736907870509,-0.596601665019989,-0.02161754667759,1.64181819855003E-05
835,20.2734254773386,0.083738401532173,0.000835903279949,9.83285713195801,9.31920396851638E-07,0.000358251214493,4.80715061712544E-06,-17.4272632598877,61.1759796142578,0.001734466524795,-0.596598982810974,-0.021808791905642,1.69510803971207E-05
836,20.2834254771151,4.5239953994751,0.007068901788443,9.78763389587402,2.55343735489078E-07,0.000984326121397,8.07340256869793E-06,-17.3698062896729,61.1753807067871,0.001729965209961,-0.596594393253326,-0.022382529452443,1.70955627254443E-05
837,20.2934254768916,0.143866583704948,0.001460655243136,9.83321285247803,5.04704900095021E-08,0.000332253111992,8.53632627695333E-06,-17.3123378753662,61.1747779846191,0.00172779080458,-0.596589326858521,-0.022573774680495,1.71225947269704E-05
838,20.3034254766681,4.56411790847778,0.007484497502446,9.78794384002686,6.57749808397057E-07,0.000950562942307,1.23633262774092E-05,-17.2544116973877,61.1741752624512,0.001723594614305,-0.596582233905792,-0.023113358765841,1.74966280610533E-05
839,20.3134254764445,0.144405677914619,-0.03853714466095,9.83206653594971,-7.04040061805245E-08,0.000301047548419,8.49387561174808E-06,-17.1964721679688,61.1735687255859,0.001721611013636,-0.596577525138855,-0.023290943354368,1.74543274624739E-05
840,20.323425476221,4.58382129669189,0.047689750790596,9.78864002227783,9.02490569387737E-07,0.000913427968044,1.1353513400536E-05,-17.1380748748779,61.1729583740234,0.001717681880109,-0.59657096862793,-0.023816868662834,1.79687140189344E-05
841,20.3334254759975,0.144522711634636,-0.038537062704563,9.83168506622314,3.15516757609657E-07,0.000269255571766,1.24004636745667E-05,-17.079662322998,61.1723480224609,0.001715927035548,-0.596563816070557,-0.023973962292075,1.81465529749403E-05
842,20.343425475774,4.58434963226318,0.007690717466176,9.78858757019043,5.7059827440753E-07,0.000875799683854,1.554573282192E-05,-17.0207901000977,61.1717338562012,0.001712226774544,-0.59655487537384,-0.024472566321492,1.84696946234908E-05
843,20.3534254755505,0.243793338537216,0.042499803006649,9.83164119720459,3.34362226794838E-07,0.000236614912865,1.13932419480989E-05,-16.9618968963623,61.1711158752441,0.00171070091892,-0.596548497676849,-0.024609170854092,1.86585166375153E-05
844,20.3634254753269,4.5648717880249,-0.032516468316317,9.78816604614258,7.80800235133938E-07,0.000837143394165,1.58891598402988E-05,-16.9025478363037,61.1704978942871,0.001707191462629,-0.596539378166199,-0.025087283924222,1.91019098565448E-05
845,20.3734254751034,0.224729314446449,-0.037704106420279,9.83164691925049,-1.93972468309767E-07,0.000202226336114,1.5953370166244E-05,-16.8431758880615,61.1698760986328,0.001705856295303,-0.596530199050903,-0.025203397497535,1.89867714652792E-05
846,20.3834254748799,4.56413745880127,0.047477766871452,9.78888320922852,1.99129704014922E-06,0.000799223722424,1.90110022231238E-05,-16.7833461761475,61.1692504882813,0.001702613779344,-0.596519231796265,-0.025661019608379,2.01228649530094E-05
847,20.3934254746564,0.294387400150299,0.003022653516382,9.83123302459717,2.36320573776538E-07,0.000168604718056,1.59571718540974E-05,-16.7234916687012,61.1686248779297,0.00170150748454,-0.596519231796265,-0.025661019608379,2.01228649530094E-05
848,20.4034254744329,4.57464408874512,0.007582511287183,9.7888355255127,8.79053459357237E-07,0.000760331284255,1.98459274542984E-05,-16.6631774902344,61.1679954528809,0.00169849395752,-0.596498727798462,-0.026193773373962,2.07526973099448E-05
849,20.4134254742094,0.254897087812424,-0.037391599267721,9.83048534393311,7.99531107986695E-07,0.000135381342261,1.97698354895692E-05,-16.6028385162354,61.167366027832,0.001697540283203,-0.596498727798462,-0.026193773373962,2.07526973099448E-05
850,20.4234254739858,4.58472681045532,0.007684947457165,9.78879261016846,2.05764285965415E-06,0.000723450968508,2.27285145228961E-05,-16.5420398712158,61.1667327880859,0.001694679260254,-0.596474230289459,-0.026678716763854,2.23785227717599E-05
851,20.4334254737623,0.314144194126129,0.043228849768639,9.8304557800293,6.86151011564107E-08,0.000103644480987,1.79857215698576E-05,-16.4812126159668,61.1660957336426,0.001693878090009,-0.596474230289459,-0.026678716763854,2.23785227717599E-05
852,20.4434254735388,4.56522130966187,-0.032522935420275,9.78914737701416,-1.45797017125915E-07,0.000687501684297,2.24547129619168E-05,-16.4199295043945,61.1654586791992,0.001691207871772,-0.596451163291931,-0.027122680097818,2.23234419536311E-05
853,20.4534254733153,0.294639199972153,0.003022686578333,9.83084392547607,5.95553956372896E-07,7.1443835622631E-05,2.31554840866011E-05,-16.3586158752441,61.1648178100586,0.001690635690466,-0.596451163291931,-0.027122680097818,2.23234419536311E-05
854,20.4634254730918,4.60487413406372,0.007889144122601,9.78794956207275,9.26042048376985E-07,0.000653466733638,2.66107854258735E-05,-16.2968425750732,61.1641731262207,0.001688079792075,-0.596422612667084,-0.027552980929613,2.31816702580545E-05
855,20.4734254728683,0.284712225198746,0.002918595680967,9.83046531677246,-2.13698800877182E-08,4.17859664594289E-05,2.16144835576415E-05,-16.2350406646729,61.1635284423828,0.001687583862804,-0.596422612667084,-0.027552980929613,2.31816702580545E-05
856,20.4834254726447,4.59535503387451,-0.03221482783556,9.7890682220459,7.19360748746567E-09,0.000620071601588,2.29422021220671E-05,-16.1727809906006,61.1628799438477,0.001685218769126,-0.596397161483765,-0.027914982289076,2.31612302741269E-05
857,20.4934254724212,0.314357370138168,0.043228566646576,9.83006858825684,-2.61361748243871E-07,1.42229691846296E-05,2.21174595935736E-05,-16.1104907989502,61.1622314453125,0.001684875460342,-0.596397161483765,-0.027914982289076,2.31612302741269E-05
858,20.5034254721977,4.57541656494141,-0.032425202429295,9.7890510559082,-1.07115447178785E-07,0.000588635506574,2.502222196199E-05,-16.0477428436279,61.1615753173828,0.001682662870735,-0.596370041370392,-0.028276981785894,2.29369215958286E-05
859,20.5134254719742,0.334417223930359,0.043436549603939,9.83005332946777,4.39688108144765E-07,-1.23546024042298E-05,2.06213608180406E-05,-15.9849615097046,61.1609230041504,0.001682472182438,-0.596370041370392,-0.028276981785894,2.29369215958286E-05
860,20.5234254717507,4.55547094345093,-0.032635252922773,9.78827476501465,5.2749038559341E-07,0.000558780622669,2.25472231250023E-05,-15.9217252731323,61.1602630615234,0.001680335961282,-0.596345245838165,-0.028591170907021,2.34788676607423E-05
861,20.5334254715272,0.354886740446091,0.003646828932688,9.83080673217773,-2.12742679650546E-06,-3.70466004824266E-05,1.55842753883917E-05,-15.8584547042847,61.1596031188965,0.001680297777057,-0.596345245838165,-0.028591170907021,2.34788676607423E-05
862,20.5434254713036,4.54510307312012,0.007256767712533,9.78825569152832,-9.08124832221802E-07,0.000531431229319,1.62146643560845E-05,-15.7947301864624,61.1589393615723,0.001678314176388,-0.596327066421509,-0.028871208429337,2.17304805119056E-05
863,20.5534254710801,0.364933848381042,0.003750494681299,9.83003520965576,-1.12782458927541E-06,-6.06270477874205E-05,1.207244622492E-05,-15.7309684753418,61.1582756042481,0.001678352360614,-0.596327066421509,-0.028871208429337,2.17304805119056E-05
864,20.5634254708566,4.54514789581299,0.007255394477397,9.78900051116943,-1.38353743750486E-06,0.000505712989252,1.27788653117022E-05,-15.6667537689209,61.1576042175293,0.001676521264017,-0.596312820911408,-0.029130754992366,2.0284367565182E-05
865,20.5734254706331,0.354978561401367,0.003646082477644,9.82927703857422,2.72461562644821E-07,-8.22336369310506E-05,1.21752118502627E-05,-15.6025037765503,61.1569366455078,0.001676635700278,-0.596312820911408,-0.029130754992366,2.0284367565182E-05
866,20.5834254704096,4.54560279846191,-0.032743617892265,9.78897953033447,-7.53068547965086E-07,0.000480773800518,1.26861787066446E-05,-15.5377998352051,61.1562614440918,0.001674880972132,-0.596298575401306,-0.029356151819229,2.00017348106485E-05
867,20.593425470186,0.374599874019623,0.043851923197508,9.82926559448242,-1.84977693606925E-06,-0.00010238114919,8.45274007588159E-06,-15.4730587005615,61.1555900573731,0.001675071660429,-0.596298575401306,-0.029356151819229,2.00017348106485E-05
868,20.6034254699625,4.51564168930054,-0.033056739717722,9.78897762298584,1.2712856687358E-06,0.000458506052382,1.02560470622848E-05,-15.4078674316406,61.1549110412598,0.001673393184319,-0.596287846565247,-0.02957471832633,1.96648161363555E-05
869,20.613425469739,0.385053306818008,0.003958033397794,9.82963943481445,-1.14943100015807E-06,-0.000121249664517,1.01982295745984E-05,-15.3426361083984,61.1542320251465,0.001673698425293,-0.596287846565247,-0.02957471832633,1.96648161363555E-05
870,20.6234254695155,4.50525379180908,0.006835980340838,9.78858947753906,-3.22776486427756E-07,0.00043724666466,9.7995452961186E-06,-15.2769565582275,61.1535491943359,0.001672096201219,-0.59627640247345,-0.029738642275333,1.88153935596347E-05
871,20.633425469292,0.40466383099556,0.044163782149553,9.82924842834473,-6.6804909693019E-07,-0.000138432704262,6.0600013966905E-06,-15.211236000061,61.1528663635254,0.001672439510003,-0.59627640247345,-0.029738642275333,1.88153935596347E-05
872,20.6434254690685,4.49611520767212,-0.073264539241791,9.7897253036499,-8.55016082823568E-07,0.000418172014179,8.24954440759029E-06,-15.1450681686401,61.1521759033203,0.001670989906415,-0.596268236637116,-0.029902566224337,1.79384842340369E-05
873,20.6534254688449,0.394692122936249,0.044059503823519,9.82848930358887,-7.1873847673487E-07,-0.000154223555,7.79528636485338E-06,-15.0788593292236,61.1514892578125,0.001671409583651,-0.596268236637116,-0.029902566224337,1.79384842340369E-05
874,20.6634254686214,4.49530839920044,0.006730294786394,9.78933238983154,-1.19220419492194E-06,0.000399109907448,6.43196335659013E-06,-15.0122032165527,61.1507949829102,0.001669998164289,-0.596260070800781,-0.030052831396461,1.68393235071562E-05
875,20.6734254683979,0.395134389400482,0.004061428830028,9.82886981964111,1.17742479233129E-06,-0.00016863073688,2.87224429484922E-06,-14.9455060958862,61.1501007080078,0.00167049409356,-0.596260070800781,-0.030052831396461,1.68393235071562E-05
876,20.6834254681744,4.48574590682983,-0.033371921628714,9.7889461517334,-4.64813297185174E-07,0.00038260166184,5.73726174479816E-06,-14.8783626556396,61.1494026184082,0.001669120742008,-0.59625518321991,-0.03017577342689,1.72450654645218E-05
877,20.6934254679509,0.40471875667572,0.044163197278977,9.82886219024658,-1.5275896885214E-06,-0.000182031115401,4.03409649152309E-06,-14.8111791610718,61.1487045288086,0.001669654855505,-0.596252977848053,-0.030059661716223,1.63685854204232E-05
878,20.7034254677274,4.46576356887817,-0.033580534160137,9.78933429718018,-9.71891154222249E-08,0.000367447937606,3.48996491084108E-06,-14.7435483932495,61.1480026245117,0.001668357755989,-0.596251010894775,-0.030271396040917,1.63117983902339E-05
879,20.7134254675038,0.415152043104172,0.004269374068826,9.82885646820068,-2.67200903181219E-07,-0.000193385130842,7.576384746244E-07,-14.675877571106,61.1472969055176,0.001668968121521,-0.596250534057617,-0.030162114650011,1.61585157911759E-05
880,20.7234254672803,4.46536350250244,0.006417008582503,9.78932476043701,-9.44450903261895E-07,0.000352148723323,3.19804803439183E-06,-14.6077604293823,61.1465911865234,0.001667747506872,-0.596248745918274,-0.030367018654943,1.56164278450888E-05
881,20.7334254670568,0.405166447162628,0.00416508410126,9.8284797668457,-1.21239565942233E-06,-0.00020505458815,3.67976781490142E-07,-14.5396041870117,61.145881652832,0.001668395940214,-0.596248507499695,-0.030244076624513,1.49216284626164E-05
882,20.7434254668333,4.45537614822388,0.006312802433968,9.7893238067627,2.54344030281572E-07,0.000339072430506,5.48039849945781E-07,-14.471001625061,61.1451683044434,0.001667213393375,-0.596248209476471,-0.030435321852565,1.50672249219497E-05
883,20.7534254666098,0.405178159475327,0.00416513113305,9.82848167419434,1.88044154469935E-07,-0.000214334926568,-1.29027409911942E-06,-14.4023590087891,61.1444549560547,0.001667900010943,-0.596248984336853,-0.03031237795949,1.51753529280541E-05
884,20.7634254663863,4.44580459594727,-0.033789001405239,9.78932094573975,6.99995723607572E-08,0.000327644229401,-1.27274304873026E-07,-14.3332738876343,61.1437377929687,0.00166675564833,-0.596248984336853,-0.030503623187542,1.5215465282381E-05
885,20.7734254661627,0.424771338701248,0.044371008872986,9.82847118377686,-1.00447687145788E-06,-0.000224157585762,-2.7668759230437E-06,-14.2641448974609,61.1430206298828,0.001667480450124,-0.596250534057617,-0.030373848974705,1.4640858353232E-05
886,20.7834254659392,4.42581510543823,-0.033996995538473,9.78933048248291,-4.24729591941286E-07,0.00031617472996,-3.43957071891054E-06,-14.1945762634277,61.1422996520996,0.00166637415532,-0.59625256061554,-0.030558263882995,1.439850711904E-05
887,20.7934254657157,0.435196220874786,0.004477040842175,9.82808113098145,-2.16090893445653E-06,-0.000232143342146,-9.22035087569384E-06,-14.1249628067017,61.1415748596191,0.001667098957114,-0.59625768661499,-0.030428491532803,1.31632350530708E-05
888,20.8034254654922,4.4054069519043,0.005793280433863,9.79010200500488,-2.41775722997772E-07,0.000305840803776,-9.1149613581365E-06,-14.0549097061157,61.1408500671387,0.001666069030762,-0.596262931823731,-0.030599245801568,1.3027487511863E-05
889,20.8134254652687,0.444785088300705,0.044578891247511,9.82769393920898,-1.19148921839951E-06,-0.000239467364736,-1.21224502436235E-05,-13.9848127365112,61.1401214599609,0.001666831900366,-0.596269845962524,-0.030462641268969,1.23484524010564E-05
890,20.8234254650451,4.3762469291687,-0.074513591825962,9.78973197937012,5.5855227998336E-08,0.000295989419101,-1.30898097268073E-05,-13.9142780303955,61.1393890380859,0.001665801974013,-0.596277415752411,-0.030633397400379,1.23844865811407E-05
891,20.8334254648216,0.454790383577347,0.044683024287224,9.82769012451172,-6.65498362195649E-07,-0.000246196083026,-1.43504585139453E-05,-13.8436994552612,61.1386566162109,0.001666564960033,-0.596285581588745,-0.03049679286778,1.20076128951041E-05
892,20.8434254645981,4.38541793823242,0.00558722531423,9.79010772705078,-1.28040471736313E-06,0.000287332048174,-1.45972708196496E-05,-13.7726831436157,61.1379203796387,0.001665573101491,-0.596293985843658,-0.030653886497021,1.1278460988251E-05
893,20.8534254643746,0.446042358875275,-0.075414642691612,9.82807445526123,-1.14756232960644E-06,-0.00025190517772,-1.67623020388419E-05,-13.7016220092773,61.1371765136719,0.001666412339546,-0.596303522586823,-0.030510453507304,1.06260804386693E-05
894,20.8634254641511,4.35458850860596,0.085271842777729,9.78974342346191,-1.13246562705172E-06,0.000279918865999,-1.51375588757219E-05,-13.6301250457764,61.1364326477051,0.001665458665229,-0.596312284469605,-0.030667547136545,9.98187988443533E-06
895,20.8734254639276,0.466043382883072,-0.075206510722637,9.82768058776856,-4.23265561266817E-07,-0.000257684121607,-1.59429710038239E-05,-13.5585832595825,61.1356887817383,0.001666297903284,-0.59632134437561,-0.030524114146829,9.74419253907399E-06
896,20.883425463704,4.34500885009766,0.045171160250902,9.79012870788574,-5.95647520640341E-07,0.000271854776656,-1.48456183524104E-05,-13.4866075515747,61.1349411010742,0.001665382296778,-0.596329867839813,-0.030688038095832,9.40744303079555E-06
897,20.8934254634805,0.465628266334534,-0.03520855307579,9.8276834487915,3.37718631726602E-07,-0.000262221990852,-1.64987504831515E-05,-13.4145860671997,61.1341896057129,0.001666259719059,-0.596339344978333,-0.030530944466591,9.6059957286343E-06
898,20.903425463257,4.34542512893677,0.005174785852432,9.78974437713623,3.60420159495334E-07,0.00026521505788,-1.51685908349464E-05,-13.3421297073364,61.133430480957,0.001665344228968,-0.596348106861115,-0.030688038095832,9.81712037173566E-06
899,20.9134254630335,0.455212503671646,0.004685290157795,9.82769012451172,-8.26461757696961E-07,-0.000266235903837,-1.41188893394428E-05,-13.2696285247803,61.1326751708984,0.001666221534833,-0.596356153488159,-0.030530944466591,9.34794661588967E-06
900,20.92342546281,4.32542657852173,0.004967763088644,9.79051685333252,8.08352183412353E-07,0.000259272288531,-1.23103818623349E-05,-13.1966953277588,61.1319122314453,0.001665382296778,-0.596363186836243,-0.030688038095832,9.81484026851831E-06
901,20.9334254625865,0.475626200437546,-0.035104222595692,9.8269157409668,-3.68472512946028E-07,-0.00026986116427,-1.13648748083506E-05,-13.1237154006958,61.1311492919922,0.001666259719059,-0.596369683742523,-0.030524114146829,9.60723355092341E-06
902,20.9434254623629,4.31542348861694,0.004864562302828,9.79052448272705,5.98630549575319E-07,0.000252725556493,-8.52078665047884E-06,-13.0503044128418,61.1303825378418,0.001665420481004,-0.59637463092804,-0.030667547136545,9.95286791294348E-06
903,20.9534254621394,0.464791893959045,0.044787608087063,9.82730197906494,1.19576986890024E-06,-0.00027325184783,-7.9703768278705E-06,-12.9768476486206,61.1296195983887,0.001666335971095,-0.596379160881043,-0.030510453507304,1.06403977042646E-05
904,20.9634254619159,4.30583763122559,-0.035236556082964,9.78977012634277,1.23540905860864E-06,0.000246579729719,-5.1261818043713E-06,-12.9029607772827,61.1288452148438,0.001665458665229,-0.596382081508637,-0.030653886497021,1.13498253995203E-05
905,20.9734254616924,0.475205779075623,0.004894196987152,9.82805919647217,1.68882081652555E-06,-0.000275507569313,-4.48958326160209E-06,-12.8290271759033,61.1280746459961,0.001666412339546,-0.596384644508362,-0.03049679286778,1.23187628560117E-05
906,20.9834254614689,4.29541873931885,0.004657754674554,9.78977680206299,1.23062216061953E-06,0.000242435053224,-2.04280308935267E-06,-12.7546644210815,61.1273002624512,0.001665573101491,-0.596385836601257,-0.030633397400379,1.3024517102167E-05
907,20.9934254612453,0.465201407670975,0.004790302366018,9.82768440246582,5.0428877784725E-07,-0.000278083141893,-2.54836731983232E-06,-12.6802549362183,61.126522064209,0.001666526775807,-0.596387326717377,-0.030469471588731,1.3314223906491E-05
908,21.0034254610218,4.27541780471802,0.0044498834759,9.79016780853272,1.78718198640127E-06,0.000237673972151,8.166867928594E-07,-12.6054182052612,61.1257400512695,0.001665725721978,-0.596386849880219,-0.030619736760855,1.43379420478595E-05
909,21.0134254607983,0.485615313053131,-0.034999046474695,9.82729148864746,1.46719389704231E-06,-0.000280193111394,1.29641000512493E-06,-12.5305347442627,61.1249580383301,0.001666679396294,-0.596386015415192,-0.030462641268969,1.51781805470819E-05
910,21.0234254605748,4.25499773025513,0.044239453971386,9.79018211364746,-2.87990111758063E-08,0.000233129627304,4.14209034715896E-06,-12.455225944519,61.1241722106934,0.001665878226049,-0.59638375043869,-0.030592415481806,1.51604235725245E-05
911,21.0334254603513,0.495608687400818,-0.03489488735795,9.82690525054932,1.12201553292834E-06,-0.000282739143586,3.49738434124447E-06,-12.3798675537109,61.1233863830566,0.001666793832555,-0.596381723880768,-0.030428491532803,1.5802264897502E-05
912,21.0434254601278,4.24540901184082,0.004137334413826,9.79095268249512,1.41438272294181E-06,0.000229278579354,6.68376060275477E-06,-12.3040857315063,61.1225967407227,0.001666030846536,-0.596377789974213,-0.030558263882995,1.66105601238087E-05
913,21.0534254599042,0.504770815372467,0.045205000787974,9.82690143585205,6.72602425311197E-07,-0.000283811736153,6.18460217083339E-06,-12.2282543182373,61.1218070983887,0.001666984520853,-0.596374273300171,-0.030401170253754,1.699405220279E-05
914,21.0634254596807,4.21582126617432,-0.036173205822706,9.79058837890625,8.27148596727056E-07,0.000225579118705,8.11424251878634E-06,-12.1520004272461,61.1210098266602,0.001666221534833,-0.596369624137878,-0.030524114146829,1.74654542206554E-05
915,21.0734254594572,0.51518052816391,0.005311280488968,9.82651424407959,2.38239081795655E-07,-0.000284653622657,7.04649664839963E-06,-12.0756969451904,61.1202125549316,0.001667137141339,-0.596365571022034,-0.030367018654943,1.75998320628423E-05
916,21.0834254592337,4.21539974212647,0.003834924660623,9.79059028625488,-5.65386690141168E-05,0.000221454698476,-0.000322148960549,-11.9989719390869,61.1194114685059,0.001666335971095,-0.596550405025482,-0.03049679286778,0
917,21.0934254590102,0.496007204055786,-0.074897542595863,9.82766914367676,-4.56005254818592E-05,-0.00028589827707,-0.000343244930264,-11.9221982955933,61.1186065673828,0.001667327829637,-0.596747100353241,-0.030319208279252,-3.05175763060106E-05
918,21.1034254587867,4.20455741882324,0.083746321499348,9.79022026062012,-4.07059924327768E-05,0.000218782704906,-0.000378083845135,-11.8450031280518,61.1178016662598,0.001666564960033,-0.596963584423065,-0.030442152172327,-6.10351526120212E-05
919,21.1134254585631,0.505999803543091,-0.07480001449585,9.82689952850342,-3.11013682221528E-05,-0.000286330556264,-0.00038815123844,-11.7677593231201,61.1169891357422,0.001667518634349,-0.597186207771301,-0.030278226360679,-9.15527198230848E-05
920,21.1234254583396,4.18538665771484,0.003570677014068,9.79290580749512,-2.80113727058051E-05,0.000215575273614,-0.000416033813963,-11.6900978088379,61.1161766052246,0.001666984520853,-0.597424209117889,-0.030401170253754,-9.15527562028728E-05
921,21.1334254581161,0.535155594348908,0.005507480818778,9.82383251190186,-2.03133313334547E-05,-0.000287698290776,-0.000413035362726,-11.6123828887939,61.1153602600098,0.001667861943133,-0.597661077976227,-0.030237246304751,-0.00012207027612
922,21.1434254578926,4.15496397018433,0.043285135179758,9.79139804840088,-1.86546385521069E-05,0.000213291525142,-0.00042142343591,-11.5342531204224,61.1145439147949,0.001667098957114,-0.597902536392212,-0.030367018654943,-0.000122070305224
923,21.1534254576691,0.515571236610413,-0.034694716334343,9.82689666748047,-9.73186615738086E-06,-0.000288014271064,-0.000411306333262,-11.4560718536377,61.1137237548828,0.00166805263143,-0.598138391971588,-0.030209925025702,-0.000122070305224
924,21.1634254574456,4.17537212371826,0.003530415939167,9.79100704193115,-9.11414463189431E-06,0.000210888654692,-0.000413788715377,-11.3774738311768,61.1128997802734,0.001667327829637,-0.598375201225281,-0.030319208279252,-0.00012207027612
925,21.173425457222,0.505143165588379,0.005202785599977,9.82614040374756,-5.3097824093129E-06,-0.000288396317046,-0.000401025026804,-11.2988252639771,61.1120719909668,0.001668243319727,-0.598605096340179,-0.030148454010487,-0.00012207027612
926,21.1834254569985,4.16536474227905,0.003459171857685,9.79177951812744,-3.14535623147094E-06,0.000207478951779,-0.0003967169323,-11.2197618484497,61.1112480163574,0.001667556702159,-0.598832368850708,-0.030271396040917,-0.000122070305224
927,21.193425456775,0.51513671875,0.005311218090355,9.82613563537598,6.7756764110527E-07,-0.000288398907287,-0.000379622128094,-11.1406469345093,61.1104202270508,0.001668510376476,-0.599049866199493,-0.030114302411676,-0.000122070290672
928,21.2034254565515,4.13577651977539,-0.036821037530899,9.79141426086426,1.64397135904437E-06,0.000205233489396,-0.000374319584807,-11.0611190795898,61.1095848083496,0.001667823758908,-0.599264323711395,-0.030223585665226,-0.0001220703125
929,21.213425456328,0.524708330631256,0.045417372137308,9.82613182067871,3.56093028130999E-06,-0.000288588460535,-0.000354797230102,-10.981538772583,61.1087493896484,0.001668777433224,-0.599467694759369,-0.030059661716223,-0.000122070268844
930,21.2234254561044,4.12534999847412,0.003101064125076,9.79104518890381,3.62114633389865E-06,0.000202769137104,-0.000346156506566,-10.9015464782715,61.1079139709473,0.00166805263143,-0.599665999412537,-0.03017577342689,-0.000122070290672
931,21.2334254558809,0.545537531375885,-0.034365355968475,9.82649898529053,7.17491911927937E-06,-0.000288633367745,-0.000328081456246,-10.8215007781982,61.1070747375488,0.001669006305747,-0.599853932857513,-0.030018679797649,-0.00012207027612
932,21.2434254556574,4.09534358978272,0.002813527593389,9.79373550415039,4.27098757427302E-06,0.000201275368454,-0.000318816601066,-10.7410459518433,61.1062278747559,0.001668548560701,-0.600036442279816,-0.030121132731438,-0.000122070290672
933,21.2534254554339,0.53552520275116,-0.0344667583704,9.82154750823975,7.15758596925298E-06,-0.000288085546345,-0.000299919454847,-10.6605377197266,61.1053848266602,0.001669273362495,-0.600208461284637,-0.029957208782435,-0.000122070290672
934,21.2634254552104,4.10449934005737,0.08293803781271,9.79640197753906,6.67446556690265E-06,0.000198628971702,-0.000290077266982,-10.5796203613281,61.1045379638672,0.00166885368526,-0.600374519824982,-0.030080150812864,-0.000122070305224
935,21.2734254549869,0.525519728660584,-0.034568581730127,9.82307910919189,6.89295575284632E-06,-0.000287969480269,-0.000273295940133,-10.498649597168,61.1036911010742,0.001669769291766,-0.600531220436096,-0.029923057183623,-0.000122070305224
936,21.2834254547633,4.08574533462524,-0.037237755954266,9.79222106933594,7.24263281881576E-06,0.000196915949346,-0.000264908565441,-10.4172716140747,61.1028366088867,0.001669120742008,-0.60068267583847,-0.030018679797649,-9.15527416509576E-05
937,21.2934254545398,0.544671893119812,0.045644652098417,9.82573890686035,7.61895944378921E-06,-0.000287457194645,-0.000251240475336,-10.3358392715454,61.1019821166992,0.001670074416325,-0.600826799869537,-0.029861586168408,-9.15527198230848E-05
938,21.3034254543163,4.07910203933716,-0.357242941856384,9.79108142852783,-0.000452870008303,0.000194439402549,-0.002914472250268,-10.2540016174316,61.1010932922363,0.001669349614531,-0.60249674320221,-0.029964039102197,-0.000366210908396
939,21.3134254540928,0.534659743309021,0.045487809926272,9.8268928527832,-0.000367296568584,-0.000287607108476,-0.003084470285103,-10.1721096038818,61.1002044677734,0.001670341473073,-0.604263842105866,-0.029800113290548,-0.000579833926167
940,21.3234254538693,4.05658006668091,-0.117272041738033,9.7918586730957,-0.00032946059946,0.000193259111256,-0.003389687277377,-10.0898113250732,61.0993003845215,0.00166973110754,-0.606206119060516,-0.029923057183623,-0.00076293933671
941,21.3334254536458,0.554647922515869,0.045678801834583,9.82573509216309,-0.000252220430411,-0.000286604947178,-0.003456081729382,-10.0074596405029,61.0983963012695,0.001670722966082,-0.6081862449646,-0.029765963554382,-0.000915527401958
942,21.3434254534222,4.03657817840576,-0.117244333028793,9.78920650482178,-0.00022286499734,0.00019152033201,-0.003642777679488,-9.92470455169678,61.097484588623,0.001669845543802,-0.610273599624634,-0.029861586168408,-0.001037597423419
943,21.3534254531987,0.555063545703888,0.005684180185199,9.82955074310303,-0.000157877351739,-0.00028626670246,-0.003600344061852,-9.84189414978027,61.096565246582,0.001670951838605,-0.612336337566376,-0.02969766035676,-0.001129150041379
944,21.3634254529752,4.0352897644043,0.003016436705366,9.79073619842529,-0.000138766452437,0.000189677622984,-0.003686668118462,-9.75868225097656,61.0956497192383,0.001670341473073,-0.61444878578186,-0.029800113290548,-0.001190185314044
945,21.3734254527517,0.555911362171173,-0.07429201155901,9.82573318481445,-8.57399863889441E-05,-0.000285233807517,-0.003593008266762,-9.67541313171387,61.0947189331055,0.001671333331615,-0.616507112979889,-0.029636189341545,-0.001251220470294
946,21.3834254525282,4.0048508644104,0.042966481298208,9.79190254211426,-8.06254392955452E-05,0.000187647106941,-0.003651120932773,-9.59174537658691,61.0937919616699,0.001670722966082,-0.61859917640686,-0.029745472595096,-0.001281738164835
947,21.3934254523047,0.57590514421463,-0.07404638081789,9.82381725311279,-3.49197762261611E-05,-0.0002843963739,-0.003506395732984,-9.50802135467529,61.0928535461426,0.001671524019912,-0.620608329772949,-0.029581546783447,-0.00131225574296
948,21.4034254520811,3.99484133720398,0.043131735175848,9.79381656646729,-2.79050327662844E-05,0.000186068413313,-0.003473267192021,-9.42389678955078,61.0919189453125,0.00167091365438,-0.62259840965271,-0.02969766035676,-0.001312255626544
949,21.4134254518576,0.56590473651886,-0.074116691946983,9.82572937011719,6.42287704977207E-06,-0.000283784524072,-0.003309810301289,-9.33971691131592,61.0909767150879,0.001671905512922,-0.624494969844818,-0.029540566727519,-0.001312255626544
950,21.4234254516341,3.98526453971863,0.003286501392722,9.79153823852539,7.64171363698551E-06,0.000185003664228,-0.003247749991715,-9.2551383972168,61.0900268554687,0.001671256963164,-0.626355648040772,-0.029636189341545,-0.001312255626544
951,21.4334254514106,0.585460126399994,-0.033859223127365,9.82762718200684,3.50549380527809E-05,-0.000283254485112,-0.003071268089116,-9.17050266265869,61.0890769958496,0.001672401442193,-0.628115057945251,-0.029479095712304,-0.001281738164835
952,21.4434254511871,3.95525455474854,0.003203196218237,9.78927040100098,3.36683406203519E-05,0.00018378526147,-0.002988982480019,-9.08547115325928,61.0881195068359,0.001671676640399,-0.629827737808228,-0.02957471832633,-0.00128173828125
953,21.4534254509635,0.58501011133194,0.006177279166877,9.82648658752441,5.32433587068226E-05,-0.000282195076579,-0.002811892656609,-9.00038242340088,61.0871620178223,0.001672630314715,-0.631438791751862,-0.029417622834444,-0.001251220470294
954,21.46342545074,3.95568776130676,-0.036565534770489,9.79155826568604,4.94127016281709E-05,0.000182441246579,-0.002718210453168,-8.91489887237549,61.0862007141113,0.001671943580732,-0.632996201515198,-0.029520075768232,-0.001220703008585
955,21.4734254505165,0.584556102752685,0.046221073716879,9.8261079788208,6.53168317512609E-05,-0.000281689717667,-0.002546875970438,-8.8293571472168,61.0852394104004,0.001672897255048,-0.634455621242523,-0.029356151819229,-0.001159667852335
956,21.483425450293,3.93568301200867,-0.036574456840754,9.79195404052734,5.91682619415224E-05,0.000180550952791,-0.002449491992593,-8.74342155456543,61.0842704772949,0.001672248821706,-0.63585901260376,-0.029479095712304,-0.00112915027421
957,21.4934254500695,0.585433959960938,-0.033736050128937,9.82572460174561,6.96740389685146E-05,-0.000280586915324,-0.002287349663675,-8.65742874145508,61.0832977294922,0.001673202496022,-0.637169718742371,-0.029301509261131,-0.0010986328125
958,21.503425449846,3.9352285861969,0.00361020420678,9.79234027862549,5.97407561144792E-05,0.000178893620614,-0.00220846501179,-8.57104301452637,61.0823211669922,0.00167259213049,-0.638435006141663,-0.029410792514682,-0.00106811511796
959,21.5134254496224,0.588113248348236,-0.273712277412415,9.82495403289795,-0.000385155464755,-0.00028049343382,-0.004706845153123,-8.48459911346436,61.0813179016113,0.001673507620581,-0.64113175868988,-0.029253698885441,-0.001281738048419
960,21.5234254493989,3.91701865196228,-0.156289547681809,9.79464054107666,-0.000374903727788,0.000177555339178,-0.005166583228856,-8.3977632522583,61.0802955627441,0.001673088059761,-0.644091844558716,-0.029349321499467,-0.001495361095294
961,21.5334254491754,0.589967012405396,0.006319294683635,9.82190799713135,-0.000297759164823,-0.000278917897958,-0.005277465563267,-8.31087017059326,61.0792694091797,0.00167388911359,-0.647115767002106,-0.029192226007581,-0.001678466447629
962,21.5434254489519,3.90520906448364,0.003953391686082,9.79312896728516,-0.000276283128187,0.000175761495484,-0.005562737584114,-8.22358703613281,61.078239440918,0.001673202496022,-0.65030312538147,-0.029287848621607,-0.001831054454669
963,21.5534254487284,0.595869123935699,-0.073595590889454,9.82686233520508,-0.000198600711883,-0.000278164312476,-0.005532809067518,-8.13624477386475,61.077205657959,0.001674232422374,-0.653473079204559,-0.029123924672604,-0.001922607072629
964,21.5634254485049,3.88657426834106,-0.115867853164673,9.79199409484863,-0.000178801477887,0.000175194480107,-0.005660919472575,-8.04851341247559,61.0761566162109,0.001673660241067,-0.656716585159302,-0.029226377606392,-0.002044677268714
965,21.5734254482813,0.599484801292419,0.046489082276821,9.82533836364746,-0.000117562958621,-0.000277485640254,-0.005576172843575,-7.96072387695313,61.0751075744629,0.001674652099609,-0.659911394119263,-0.029069283977151,-0.002105712424964
966,21.5834254480578,3.88111424446106,-0.075515747070313,9.79238224029541,-0.000100437471701,0.000173515771166,-0.005592945497483,-7.87254619598389,61.0740470886231,0.001674079801887,-0.663115859031677,-0.029164906591177,-0.002166747814044
967,21.5934254478343,0.604933679103851,0.006604746449739,9.82495594024658,-3.98109586967621E-05,-0.000275769823929,-0.005386817269027,-7.78430891036987,61.0729866027832,0.001675033476204,-0.666202127933502,-0.029007811099291,-0.002166747814044
968,21.6034254476108,3.86111402511597,-0.075337268412113,9.79125213623047,-4.03307058149949E-05,0.000172490574187,-0.005377751309425,-7.69568586349487,61.0719108581543,0.001674308790825,-0.669283986091614,-0.029110264033079,-0.002197265625
969,21.6134254473873,0.605393648147583,-0.033334780484438,9.82647800445557,1.10233540908666E-05,-0.000274797872407,-0.005123993847519,-7.6070032119751,61.0708389282227,0.001675262465142,-0.672219574451447,-0.028953170403838,-0.002197265392169
970,21.6234254471638,3.84564447402954,-0.035120945423842,9.79431629180908,1.71038809639867E-05,0.00017105981533,-0.005009275395423,-7.51793575286865,61.0697555541992,0.001674842787907,-0.675089597702026,-0.029062453657389,-0.002166747814044
971,21.6334254469402,0.614912688732147,0.006850133184344,9.82228183746338,5.06710530316923E-05,-0.000273902522167,-0.004782553762198,-7.42880773544312,61.0686721801758,0.001675682025962,-0.677829504013062,-0.028905358165503,-0.002136230235919
972,21.6434254467167,3.83563756942749,-0.034867789596319,9.79356193542481,5.29935678059701E-05,0.000169615901541,-0.004629000090063,-7.33929681777954,61.0675773620605,0.001675071660429,-0.680481791496277,-0.029000980779529,-0.002105712657794
973,21.6534254464932,0.620379090309143,-0.033022031188011,9.82456493377686,7.86561795393936E-05,-0.000272681383649,-0.004389393143356,-7.24972438812256,61.0664825439453,0.00167594908271,-0.682996869087219,-0.028843887150288,-0.002075195079669
974,21.6634254462697,3.82063102722168,-0.03470204025507,9.7939567565918,7.87584285717457E-05,0.000168059923453,-0.004213321022689,-7.15977048873901,61.0653800964356,0.001675414969213,-0.685410976409912,-0.028939509764314,-0.00201416015625
975,21.6734254460462,0.619889795780182,0.007046197075397,9.82418632507324,0.000102874473669,-0.000271868222626,-0.003938129171729,-7.06975507736206,61.0642776489258,0.001676330575719,-0.687667191028595,-0.028775585815311,-0.001953124883585
976,21.6834254458226,3.79562377929687,-0.034692332148552,9.79320907592773,9.20908569241874E-05,0.000167182792211,-0.003793727606535,-6.97936010360718,61.0631637573242,0.001675758277997,-0.689841091632843,-0.028871208429337,-0.001922607072629
977,21.6934254455991,0.644394278526306,0.0474110879004,9.8249397277832,0.000113787398732,-0.000270005082712,-0.003527473658323,-6.88890171051025,61.0620536804199,0.001676711952314,-0.691862285137177,-0.028714112937451,-0.001831054454669
978,21.7034254453756,3.77658557891846,-0.114640899002552,9.79284000396729,0.000101809724583,0.000166678029927,-0.003375452011824,-6.79806613922119,61.0609321594238,0.001676139771007,-0.693795919418335,-0.028809735551477,-0.001770019182004
979,21.7134254451521,0.636326253414154,-0.112659722566605,9.82302951812744,-0.00023339127074,-0.000269325071713,-0.005162096582353,-6.70716762542725,61.0597953796387,0.001676902757026,-0.696753859519959,-0.028659472241998,-0.00192260730546
980,21.7234254449286,3.77756571769714,-0.194283351302147,9.7958927154541,-0.000225278534344,0.000164482233231,-0.005406131967902,-6.61589241027832,61.0586357116699,0.001676445011981,-0.699851512908935,-0.028748264536262,-0.002044677268714
981,21.7334254447051,0.64436411857605,0.047482427209616,9.82303237915039,-0.000163278586115,-0.000268815812888,-0.005385053344071,-6.5245532989502,61.0574798583984,0.001677322317846,-0.70293664932251,-0.028598001226783,-0.002136230003089
982,21.7434254444815,3.74659299850464,-0.114279545843601,9.79400730133057,-0.000148726583575,0.000163712567883,-0.005504633300006,-6.43283939361572,61.0563087463379,0.001676788320765,-0.706090450286865,-0.028693623840809,-0.002227782970294
983,21.753425444258,0.644846379756928,0.007534150499851,9.82417678833008,-8.91381787369028E-05,-0.00026665997575,-0.005384634714574,-6.34106206893921,61.0551338195801,0.001677703810856,-0.709175884723663,-0.02855701930821,-0.002258300548419
984,21.7634254440345,3.75059938430786,-0.033836033195257,9.79363059997559,-7.82161878305487E-05,0.000162417214597,-0.005390461534262,-6.24890995025635,61.053955078125,0.001677169813775,-0.712264239788055,-0.028632150962949,-0.002319335704669
985,21.773425443811,0.650833427906036,-0.072339870035648,9.82455348968506,-2.53998005064204E-05,-0.000266291026492,-0.005206080153584,-6.15669345855713,61.0527687072754,0.001678123488091,-0.71524715423584,-0.028488717973232,-0.002319335471839
986,21.7834254435875,3.72509574890137,0.006235043518245,9.79364681243897,-1.72186919371597E-05,0.00016070723359,-0.005141181405634,-6.06410503387451,61.0515747070312,0.00167762755882,-0.718192875385284,-0.028584340587258,-0.002319335704669
987,21.793425443364,0.650325238704681,-0.032277945429087,9.82150459289551,2.55654704233166E-05,-0.000265263399342,-0.004916315432638,-5.97145175933838,61.0503807067871,0.001678314176388,-0.721009850502014,-0.028427245095372,-0.002319335704669
988,21.8034254431404,3.72508573532104,0.006601743865758,9.79670333862305,2.7689382477547E-05,0.000160427312949,-0.00480354949832,-5.87842702865601,61.0491790771484,0.001677856431343,-0.723761975765228,-0.028522867709398,-0.002288817660883
989,21.8134254429169,0.655825912952423,-0.072140567004681,9.82455253601074,6.4136300352402E-05,-0.000263461406576,-0.004559504799545,-5.78533697128296,61.0479736328125,0.001678886357695,-0.726374268531799,-0.028365774080157,-0.002258300548419
990,21.8234254426934,3.7005832195282,-0.033367048949003,9.79175758361816,5.552912625717E-05,0.000157965623657,-0.004455958027393,-5.69187736511231,61.0467567443848,0.001678275992163,-0.728927373886108,-0.028461396694183,-0.002227782970294
991,21.8334254424699,0.659800052642822,0.007988749071956,9.82455253601074,8.4385828813538E-05,-0.000262398389168,-0.00419546989724,-5.59835243225098,61.045539855957,0.001679153414443,-0.7313312292099,-0.028304303064942,-0.002166747581214
992,21.8434254422464,3.69557547569275,-0.033110342919827,9.79367351531982,7.64401047490537E-05,0.00015804549912,-0.004061888437718,-5.5044584274292,61.0443153381348,0.001678581233136,-0.733658254146576,-0.028393095359206,-0.002136230235919
993,21.8534254420229,0.655816495418549,-0.072001434862614,9.82417106628418,9.53220296651125E-05,-0.000261316454271,-0.003834623843431,-5.41049909591675,61.043083190918,0.001679458539002,-0.73585569858551,-0.028242830187082,-0.002075194614008
994,21.8634254417993,3.68402290344238,0.087047770619392,9.79406929016113,9.64974169619381E-05,0.000155959482072,-0.003643425414339,-5.31617259979248,61.0418548583984,0.00167892454192,-0.737943172454834,-0.028331622481346,-0.002014159923419
995,21.8734254415758,0.671326041221619,-0.111737653613091,9.82378387451172,0.000113574118586,-0.000259909342276,-0.003393043531105,-5.22177886962891,61.0406150817871,0.001679801847786,-0.739887177944183,-0.028181359171867,-0.001953124650754
996,21.8834254413523,3.65452742576599,0.046926449984312,9.79484748840332,0.000110831133497,0.000155299043399,-0.003207027213648,-5.12702035903931,61.0393753051758,0.00167934410274,-0.741724908351898,-0.028270151466131,-0.001892089610919
997,21.8934254411288,0.675804257392883,-0.071613781154156,9.82149219512939,0.000118717922305,-0.000259166874457,-0.002998258685693,-5.0321946144104,61.0381278991699,0.001680068904534,-0.743442714214325,-0.028140377253294,-0.0018310546875
998,21.9034254409053,3.65399694442749,0.087144128978252,9.79752349853516,0.000243081391091,0.000154628200107,-0.002060353988782,-4.93700456619263,61.0368843078613,0.00167972559575,-0.744623124599457,-0.028215510770679,-0.00167846668046
999,21.9134254406817,0.673715054988861,0.088453114032745,9.81997489929199,0.000304120505461,-0.000257696927292,-0.001345918979496,-4.84174680709839,61.0356483459473,0.001680412213318,-0.745394647121429,-0.028078906238079,-0.001495361095294
1000,21.9234254404582,3.63054871559143,-0.033027309924364,9.79677200317383,0.000254146551015,0.000152973938384,-0.001167085720226,-4.74612712860107,61.0344047546387,0.001679954468273,-0.746062934398651,-0.028154037892819,-0.00137329089921
1001,21.9334254402347,0.689744353294373,0.00871167331934,9.82339763641357,0.000215737178223,-0.000256974773947,-0.001005601836368,-4.65043830871582,61.0331573486328,0.001680870074779,-0.74663907289505,-0.028010604903102,-0.00125122058671
1002,21.9434254400112,3.61606001853943,-0.073110170662403,9.79334926605225,0.000185001437785,0.00015116953,-0.000856549595483,-4.55438899993897,61.0319023132324,0.001680297777057,-0.747129857540131,-0.028092566877604,-0.001129150041379
1003,21.9534254397877,0.688690066337585,0.088752403855324,9.8237829208374,0.000160571129527,-0.000254456594121,-0.000737592810765,-4.45827054977417,61.0306510925293,0.001681137015112,-0.747552812099457,-0.027949132025242,-0.00103759765625
1004,21.9634254395642,3.60553288459778,-0.033169098198414,9.79640960693359,0.000139480689541,0.000150156847667,-0.000618851685431,-4.36179304122925,61.0293998718262,0.001680793706328,-0.747907102108002,-0.028044754639268,-0.000976562441792
1005,21.9734254393406,0.690244078636169,-0.031203346326947,9.82072925567627,0.000125354315969,-0.000253708392847,-0.000523222319316,-4.26524639129639,61.0281372070313,0.001681556692347,-0.748206973075867,-0.027887661010027,-0.000885009823833
1006,21.9834254391171,3.59500050544739,0.006757209543139,9.7952766418457,0.000111394452688,0.000148786508362,-0.000427721213782,-4.16834115982056,61.0268745422363,0.00168102257885,-0.748451948165894,-0.027983283624053,-0.00082397449296
1007,21.9934254388936,0.694188177585602,0.048881400376558,9.82339477539063,9.99649419100024E-05,-0.000252213940257,-0.000353890180122,-4.07136631011963,61.0256156921387,0.001681861816905,-0.748654723167419,-0.02781935967505,-0.00076293956954
1008,22.0034254386701,3.57603597640991,-0.073453590273857,9.79490947723389,8.98373618838377E-05,0.000147399943671,-0.000282971333945,-3.97403502464294,61.0243453979492,0.001681365887634,-0.748816907405853,-0.027914982289076,-0.000701904355083
1009,22.0134254384466,0.706675946712494,0.04906402155757,9.82262897491455,8.14019367680885E-05,-0.000250716402661,-0.000227784330491,-3.87663316726685,61.0230751037598,0.001682167057879,-0.748947679996491,-0.02775788679719,-0.00067138671875
1010,22.0234254382231,3.55798816680908,-0.033672403544188,9.79568958282471,7.46210716897622E-05,0.000146413978655,-0.000172083979123,-3.77887630462646,61.021800994873,0.001681709196419,-0.748947679996491,-0.02775788679719,-0.00067138671875
1011,22.0334254379995,0.706665277481079,0.049081854522228,9.8226318359375,6.90690721967258E-05,-0.000249882810749,-0.000132587418193,-3.68104887008667,61.0205268859863,0.001682548434474,-0.749122202396393,-0.027696415781975,-0.000579833984375
1012,22.043425437776,3.54850149154663,-0.073773242533207,9.79493236541748,6.29104688414372E-05,0.000145426325616,-8.75767145771533E-05,-3.58286738395691,61.0192413330078,0.001682052621618,-0.749122202396393,-0.027696415781975,-0.000579833984375
1013,22.0534254375525,0.712187945842743,0.009150641039014,9.8230094909668,5.8140023611486E-05,-0.000248683121754,-6.13465963397175E-05,-3.48461508750916,61.0179557800293,0.001682891859673,-0.749122202396393,-0.027696415781975,-0.000579833984375
1014,22.063425437329,3.53298544883728,-0.033950757235289,9.79494094848633,5.34736354893539E-05,0.000144835677929,-3.17121885018423E-05,-3.38601016998291,61.0166702270508,0.001682395930402,-0.749225616455078,-0.027730567380786,-0.000488281220896
1015,22.0734254371055,0.719146490097046,0.049267593771219,9.82262420654297,5.00433052366134E-05,-0.000247061863774,-1.34067040562513E-05,-3.28733348846436,61.015380859375,0.001683196984231,-0.749233305454254,-0.027593962848187,-0.000457763700979
1016,22.083425436882,3.51744079589844,0.005855362396687,9.79572010040283,4.68718462798279E-05,0.000142464748933,1.06409406726016E-05,-3.18830585479736,61.0140838623047,0.001682739239186,-0.749233305454254,-0.027593962848187,-0.000457763700979
1017,22.0934254366584,0.722692370414734,-0.030692873522639,9.82262325286865,4.30665168096311E-05,-0.00024619983742,2.43334361584857E-05,-3.08920645713806,61.0127906799316,0.001683578477241,-0.749233305454254,-0.027593962848187,-0.000457763700979
1018,22.1034254364349,3.50128936767578,0.285630762577057,9.7953462600708,0.000493639905471,0.000141144380905,0.002670588204637,-2.98975706100464,61.0115165710449,0.001683120732196,-0.747683107852936,-0.027600793167949,-0.0001220703125
1019,22.1134254362114,0.727047562599182,0.209456890821457,9.82300186157227,0.000684528029524,-0.000244525930611,0.00447072647512,-2.89023494720459,61.0102653503418,0.001683998038061,-0.745121717453003,-0.027471018955112,0.000265933107585
1020,22.1234254359879,3.48734736442566,0.205213874578476,9.79306411743164,0.000831924728118,0.000139721989399,0.006310197524726,-2.79036426544189,61.009033203125,0.001683349604718,-0.741506278514862,-0.027552980929613,0.000740855117328
1021,22.1334254357644,0.737581491470337,0.169650822877884,9.82680988311768,0.000814994738903,-0.000243328162469,0.00743288686499,-2.69042038917541,61.0078125,0.001684417715296,-0.737247288227081,-0.027409547939897,0.001205770182423
1022,22.1434254355408,3.46839427947998,0.124564804136753,9.7919282913208,0.000830638105981,0.000138890594826,0.008657002821565,-2.59012985229492,61.0065994262695,0.001683845533989,-0.732287168502808,-0.027498340234161,0.001679313834757
1023,22.1534254353173,0.740607023239136,0.129706546664238,9.82337760925293,0.000727187318262,-0.000241959744017,0.009263857267797,-2.48976564407349,61.0053977966309,0.001684646587819,-0.726979494094849,-0.027348075062037,0.002093421295285
1024,22.1634254350938,3.4559109210968,0.12387765198946,9.7965145111084,0.000687861756887,0.000136755697895,0.010012372396886,-2.38905620574951,61.004207611084,0.001684265094809,-0.721242725849152,-0.027436869218946,0.002484794007614
1025,22.1734254348703,0.745620727539063,0.129742458462715,9.81993865966797,0.000578461331315,-0.00024120863236,0.010338717140257,-2.28827261924744,61.0030250549316,0.001684913644567,-0.715319335460663,-0.027279773727059,0.00281340116635
1026,22.1834254346468,3.44392323493958,0.083106353878975,9.79843425750732,0.000519797380548,0.000135769005283,0.010707288049162,-2.18714475631714,61.0018501281738,0.001684570219368,-0.709184229373932,-0.027375396341086,0.003108295146376
