frame,timestamp,x,y,z,qw,qx,qy,qz,v_x (m/s),v_y (m/s),v_z (m/s),w_x (rad/s),w_y (rad/s),w_z (rad/s),acc x (m/s^2),acc y (m/s^2),acc z (m/s^2),roll,pitch,yaw
4557,174828180879,-23.800546646118164,61.24238586425781,0.09412002563476562,0.9999864410163584,0.0,-0.0,-0.005207473805720072,0.0,-0.0,-0.2939999997615814,0.0,-0.0,-0.0,0.0,-0.0,-9.800000190734863,0.0,-0.0,-0.01041499468373021
4558,174838180879,-23.800546646118164,61.24238586425781,0.0902000442147255,0.9999864410163584,0.0,-0.0,-0.005207473805720072,0.0,-0.0,-0.3919999897480011,0.0,-0.0,-0.0,0.0,-0.0,-9.799999237060547,0.0,-0.0,-0.01041499468373021
4559,174848180879,-23.800546646118164,61.24238586425781,0.0853000208735466,0.9999864410163584,0.0,-0.0,-0.005207473805720072,0.0,-0.0,-0.4899999797344208,0.0,-0.0,-0.0,0.0,-0.0,-9.799999237060547,0.0,-0.0,-0.01041499468373021
4560,174858180879,-23.800546646118164,61.24238586425781,0.07942001521587372,0.9999864410163584,0.0,-0.0,-0.005207473805720072,0.0,-0.0,-0.5879999995231628,0.0,-0.0,-0.0,0.0,-0.0,-9.800002098083496,0.0,-0.0,-0.01041499468373021
4561,174868180879,-23.800546646118164,61.24238586425781,0.07292083650827408,0.9999864410163584,0.0,-0.0,-0.005207473805720072,0.0,-0.0,-0.6499363780021667,-0.00044292787788435817,0.00018683887901715934,1.7491216808274146e-12,0.0,-0.0,-6.193637847900391,0.0,-0.0,-0.01041499468373021
4562,174878180878,-23.800546646118164,61.24238586425781,0.06700301915407181,0.9999864410163584,0.0,-0.0,-0.005207473805720072,-1.0590547105948644e-07,-2.2280735265667317e-06,-0.591778039932251,-0.00021339982049539685,0.00013214298815000802,7.050624528659455e-09,-1.0590547390165739e-05,-0.00022280735720414668,5.815834045410156,0.0,-0.0,-0.01041499468373021
4563,174888180878,-23.800546646118164,61.24238586425781,0.06157264485955238,0.9999864410163584,0.0,-0.0,-0.005207473805720072,-8.158038866667994e-08,-1.6871613297553267e-06,-0.5430380702018738,-0.00013878810568712652,9.76341325440444e-05,-6.086086301593241e-09,2.4325081540155225e-06,5.40912187716458e-05,4.873996734619141,0.0,-0.0,-0.01041499468373021
4564,174898180878,-23.800546646118164,61.24238586425781,0.05658992752432823,0.9999864410163584,0.0,-0.0,-0.005207473805720072,-8.267785034377084e-08,-1.2283089745324105e-06,-0.49827253818511963,-0.00014844961697235703,0.00010240588017040864,-7.208138530501174e-10,-1.0974616770909051e-07,4.5885237341281027e-05,4.476552963256836,0.0,-0.0,-0.01041499468373021
4565,174908180878,-23.800546646118164,61.24238586425781,0.05201831832528114,0.9999864410163584,0.0,-0.0,-0.005207473805720072,-5.606609221331382e-08,-1.3413051647148677e-06,-0.45716163516044617,-0.0001549194857943803,6.57591299386695e-05,-4.224406158215288e-09,2.661175813045702e-06,-1.129961856349837e-05,4.111090183258057,0.0,-0.0,-0.01041499468373021
4566,174918180877,-23.800546646118164,61.24238586425781,0.04782421141862869,0.9999864410163584,0.0,-0.0,-0.005207473805720072,-7.199930962542567e-08,-1.0381281754234806e-06,-0.4194090962409973,-0.00012380846601445228,8.779278869042173e-05,-6.49548748121731e-11,-1.593321712789475e-06,3.0317698474391364e-05,3.7752537727355957,0.0,-0.0,-0.01041499468373021
4567,174928180877,-23.800546646118164,61.24238586425781,0.04397674277424812,0.9999864410163584,0.0,-0.0,-0.005207473805720072,-3.928982295064998e-08,-7.898712510723271e-07,-0.38474470376968384,-4.078710844623856e-05,4.8532107030041516e-05,-7.156164993915581e-09,3.2709485822124407e-06,2.4825692889862694e-05,3.4664392471313477,0.0,-0.0,-0.01041499468373021
4568,174938180877,-23.800546646118164,61.24238586425781,0.04044754058122635,0.9999864410163584,0.0,-0.0,-0.005207473805720072,-1.3921900965385703e-08,-1.019425326376222e-06,-0.35291948914527893,-4.36855734733399e-05,8.721744961803779e-06,-6.419996756434898e-10,2.536792180762859e-06,-2.2955407985136844e-05,3.182521343231201,0.0,-0.0,-0.01041499468373021
4569,174948180877,-23.800546646118164,61.24238586425781,0.03721050173044205,0.9999864410163584,0.0,-0.0,-0.005207473805720072,-2.742442717362792e-08,-5.930476163484855e-07,-0.3237023949623108,-8.650344534544274e-05,2.9845999961253256e-05,-2.0955210899842314e-09,-1.350252659904072e-06,4.263777009327896e-05,2.9217095375061035,0.0,-0.0,-0.01041499468373021
4570,174958180877,-23.800546646118164,61.24238586425781,0.034241676330566406,0.9999864410163584,0.0,-0.0,-0.005207473805720072,-2.6631786553821257e-08,-6.03267949372821e-07,-0.29688146710395813,-8.791442814981565e-05,3.0129087463137694e-05,9.852761939654897e-10,7.926406198066616e-08,-1.022033302433556e-06,2.6820926666259766,0.0,-0.0,-0.01041499468373021
4571,174968180876,-23.800546646118164,61.24238586425781,0.031519051641225815,0.9999864410163584,0.0,-0.0,-0.005207473805720072,-7.808318436275385e-09,-2.375480931959828e-07,-0.2722642123699188,-5.342355871107429e-05,9.881189726002049e-06,-6.667914664859609e-09,1.8823467371476e-06,3.657198612927459e-05,2.4617254734039307,0.0,-0.0,-0.01041499468373021
4572,174978180876,-23.800546646118164,61.24238586425781,0.029022330418229103,0.9999864410163584,0.0,-0.0,-0.005207473805720072,-2.56884362670462e-08,-3.9377113125738106e-07,-0.2496708184480667,-1.3951638493381324e-06,2.9424158128676936e-05,2.2256836373912847e-09,-1.7880119003166328e-06,-1.5622303180862218e-05,2.2593393325805664,0.0,-0.0,-0.01041499468373021
4573,174988180876,-23.800546646118164,61.24238586425781,0.026732977479696274,0.9999864410163584,0.0,-0.0,-0.005207473805720072,8.175924826048231e-09,-1.4974915529819555e-07,-0.22893542051315308,-2.6365310077380855e-06,-1.0716315046011005e-05,-5.445114137359042e-09,3.3864359920698917e-06,2.440219759591855e-05,2.0735397338867188,0.0,-0.0,-0.01041499468373021
4574,174998180876,-23.800546646118164,61.24238586425781,0.024633903056383133,0.9999864410163584,0.0,-0.0,-0.005207473805720072,7.048307715251667e-09,-1.260954576309814e-07,-0.2099071443080902,-1.6482401861139806e-06,-1.1807245755335316e-05,-1.1950742617727883e-09,-1.1276171107965638e-07,2.3653697098779958e-06,1.9028276205062866,0.0,-0.0,-0.01041499468373021
4575,175008180875,-23.800546646118164,61.24238586425781,0.022709425538778305,0.9999864410163584,0.0,-0.0,-0.005207473805720072,-2.4151528776883424e-08,-2.218306320855845e-07,-0.19244834780693054,1.028715587381157e-06,2.8107784601161256e-05,5.947991432719846e-09,-3.1199836030282313e-06,-9.573517672833987e-06,1.7458796501159668,0.0,-0.0,-0.01041499468373021
4576,175018180875,-23.800546646118164,61.24238586425781,0.020945128053426743,0.9999864410163584,0.0,-0.0,-0.005207473805720072,-4.351480509257044e-09,-1.630790613660338e-08,-0.17642852663993835,-4.970434383722022e-05,8.070443982433062e-06,-2.6515574180763224e-09,1.9800047539320076e-06,2.055227196251508e-05,1.6019821166992188,0.0,-0.0,-0.01041499468373021
4577,175028180875,-23.800546646118164,61.24238586425781,0.019327811896800995,0.9999864410163584,0.0,-0.0,-0.005207473805720072,-1.9918319438261278e-08,-3.462357511807568e-08,-0.16173233091831207,3.190813004039228e-06,2.6527579393587075e-05,3.413084814773981e-10,-1.5566838555969298e-06,-1.831566919463512e-06,1.4696195125579834,0.0,-0.0,-0.01041499468373021
4578,175038180875,-23.800546646118164,61.24238586425781,0.017845306545495987,0.9999864410163584,0.0,-0.0,-0.005207473805720072,-2.0696779845508217e-09,7.225104781127811e-08,-0.14825032651424408,4.1894516471074894e-05,5.220606453804066e-06,-4.949108234342248e-09,1.7848641391537967e-06,1.068746223609196e-05,1.3482004404067993,0.0,-0.0,-0.01041499468373021
4579,175048180875,-23.800546646118164,61.24238586425781,0.016486473381519318,0.9999864410163584,0.0,-0.0,-0.005207473805720072,-5.223843579926779e-09,-2.144813038285065e-07,-0.1358819454908371,4.4866144889965653e-05,3.952280621888349e-06,3.288766592390857e-09,-3.154165710839152e-07,-2.867323564714752e-05,1.2368381023406982,0.0,-0.0,-0.01041499468373021
4580,175058180874,-23.800546646118164,61.24238586425781,0.015241088345646858,0.9999864410163584,0.0,-0.0,-0.005207473805720072,-2.805967902475004e-09,-3.6460210850464136e-08,-0.1245381310582161,-3.090599420829676e-05,3.867647592414869e-06,-8.19705248122915e-10,2.4178757485060487e-07,1.7802109141484834e-05,1.1343814134597778,0.0,-0.0,-0.01041499468373021
4581,175068180874,-23.800546646118164,61.24238586425781,0.014099731110036373,0.9999864410163584,0.0,-0.0,-0.005207473805720072,2.811366783816993e-08,-8.61013802477828e-08,-0.1141342893242836,-4.345309207565151e-05,-3.7802841688971967e-05,-5.0182231703388425e-09,3.0919636628823355e-06,-4.964117124472978e-06,1.0403841733932495,0.0,-0.0,-0.01041499468373021
4582,175078180874,-23.800546646118164,61.24238586425781,0.013053817674517632,0.9999864410163584,0.0,-0.0,-0.005207473805720072,-1.7622614478796095e-08,-4.729375557843696e-09,-0.10459193587303162,8.724347026145551e-06,2.056898665614426e-05,3.288461281059085e-09,-4.573628302750876e-06,8.137200893543195e-06,0.954235315322876,0.0,-0.0,-0.01041499468373021
4583,175088180874,-23.800546646118164,61.24238586425781,0.01209537498652935,0.9999864410163584,0.0,-0.0,-0.005207473805720072,3.4984395935744317e-10,-6.019207887675293e-08,-0.09584266692399979,-4.066432666149922e-05,4.942025952914264e-07,1.0829820373814414e-09,1.7972458863368956e-06,-5.546270131162601e-06,0.8749269247055054,0.0,-0.0,-0.01041499468373021
4584,175098180873,-23.800546646118164,61.24238586425781,0.011217193678021431,0.9999864410163584,0.0,-0.0,-0.005207473805720072,-1.3290661016185368e-08,8.488692060382164e-08,-0.08781852573156357,1.1299527614028193e-05,1.8743734472081997e-05,4.283133570037734e-10,-1.3640504903378314e-06,1.4507900232274551e-05,0.8024141192436218,0.0,-0.0,-0.01041499468373021
4585,175108180873,-23.800546646118164,61.24238586425781,0.010412558913230896,0.9999864410163584,0.0,-0.0,-0.005207473805720072,3.089368050268604e-08,-1.955240946927006e-07,-0.08046261966228485,5.101487477077171e-05,-4.29420470027253e-05,-2.5908097889271176e-09,4.418433945829747e-06,-2.804110226861667e-05,0.7355905771255493,0.0,-0.0,-0.01041499468373021
4586,175118180873,-23.800546646118164,61.24238586425781,0.009675368666648865,0.9999864410163584,0.0,-0.0,-0.005207473805720072,4.112734874883728e-10,8.464802192520438e-09,-0.07371748983860016,-3.7565358070423827e-05,-2.9360910502873594e-06,2.544129573678333e-09,-3.048240841962979e-06,2.039888931903988e-05,0.6745129823684692,0.0,-0.0,-0.01041499468373021
4587,175128180873,-23.800546646118164,61.24238586425781,0.009000015445053577,0.9999864410163584,0.0,-0.0,-0.005207473805720072,-1.2759691969677078e-08,4.265388753310617e-08,-0.06753383576869965,1.4818649106018711e-05,1.7068463421310298e-05,1.024520190906486e-10,-1.317096575803589e-06,3.4189085909019923e-06,0.6183654069900513,0.0,-0.0,-0.01041499468373021
4588,175138180873,-23.800546646118164,61.24238586425781,0.008381347171962261,0.9999864410163584,0.0,-0.0,-0.005207473805720072,1.7315555211894207e-08,-8.041902788136213e-08,-0.06186594441533089,1.6816589777590707e-05,-2.309964293090161e-05,-7.889142672468097e-10,3.007524810527684e-06,-1.2307290489843581e-05,0.5667891502380371,0.0,-0.0,-0.01041499468373021
4589,175148180872,-23.800546646118164,61.24238586425781,0.007814674638211727,0.9999864410163584,0.0,-0.0,-0.005207473805720072,-1.2136915472638066e-08,1.0246388626455882e-07,-0.056669194251298904,1.772876021277625e-05,1.5802183042978868e-05,2.4895774330957465e-09,-2.945247160823783e-06,1.8288292267243378e-05,0.5196750164031982,0.0,-0.0,-0.01041499468373021
4590,175158180872,-23.800546646118164,61.24238586425781,0.0072956085205078125,0.9999864410163584,0.0,-0.0,-0.005207473805720072,1.9459891476003577e-08,-5.2499540714734394e-08,-0.051906976848840714,1.982775575015694e-05,-2.5714720322866924e-05,-8.527512029843365e-10,3.1596805456501897e-06,-1.5496343621634878e-05,0.4762217402458191,0.0,-0.0,-0.01041499468373021
4591,175168180872,-23.800546646118164,61.24238586425781,0.006820182781666517,0.9999864410163584,0.0,-0.0,-0.005207473805720072,2.312275482196924e-09,-5.879631359562154e-08,-0.04754270613193512,-3.003523488587234e-05,-5.289843102218583e-06,3.787526736687141e-09,-1.714761651783192e-06,-6.296772880887147e-07,0.4364270567893982,0.0,-0.0,-0.01041499468373021
4592,175178180872,-23.800546646118164,61.24238586425781,0.006384773179888725,0.9999864410163584,0.0,-0.0,-0.005207473805720072,-1.229577684114247e-08,-1.0374635905918694e-07,-0.04354188218712807,2.2062673451728188e-05,1.4229416592570487e-05,2.530049281190827e-09,-1.4608052651965409e-06,-4.495004759519361e-06,0.40008240938186646,0.0,-0.0,-0.01041499468373021
4593,175188180871,-23.800546646118164,61.24238586425781,0.005986022762954235,0.9999864410163584,0.0,-0.0,-0.005207473805720072,1.8887856612082032e-08,-1.48240914654707e-07,-0.03987563028931618,2.2102214643382467e-05,-2.638130717969034e-05,-1.9667341089046886e-09,3.1183631108433474e-06,-4.449455445865169e-06,0.36662518978118896,0.0,-0.0,-0.01041499468373021
4594,175198180871,-23.800546646118164,61.24238586425781,0.00562084186822176,0.9999864410163584,0.0,-0.0,-0.005207473805720072,-1.1441959379965283e-08,3.107043156092004e-08,-0.03651659935712814,2.2177360733621754e-05,1.3633673916046973e-05,1.787722858637153e-09,-3.0329815672303084e-06,1.793113369785715e-05,0.3359031081199646,0.0,-0.0,-0.01041499468373021
4595,175208180871,-23.800546646118164,61.24238586425781,0.005286483559757471,0.9999864410163584,0.0,-0.0,-0.005207473805720072,2.5255906255239324e-09,-3.085698949689686e-07,-0.03343768045306206,-2.6879730285145342e-05,-6.446559837058885e-06,2.742604809924387e-09,1.3967550103188842e-06,-3.396403189981356e-05,0.3078919053077698,0.0,-0.0,-0.01041499468373021
4596,175218180871,-23.800546646118164,61.24238586425781,0.004980315919965506,0.9999864410163584,0.0,-0.0,-0.005207473805720072,3.550196359114466e-09,-1.183860547371296e-07,-0.030616359785199165,-2.785989454423543e-05,-6.493499768112088e-06,8.181355592995487e-11,1.0246057513541018e-07,1.9018383682123385e-05,0.2821320593357086,0.0,-0.0,-0.01041499468373021
4597,175228180870,-23.800546646118164,61.24238586425781,0.004699973855167627,0.9999864410163584,0.0,-0.0,-0.005207473805720072,-1.0506440162316721e-08,-1.0791528559650487e-08,-0.028032369911670685,2.3066351786837913e-05,1.3088181731291115e-05,-7.990729744555836e-10,-1.4056636246095877e-06,1.0759452379716095e-05,0.25839897990226746,0.0,-0.0,-0.01041499468373021
4598,175238180870,-23.800546646118164,61.24238586425781,0.004443320911377668,0.9999864410163584,0.0,-0.0,-0.005207473805720072,4.4725116943311605e-09,-1.2731365472973266e-07,-0.025666169822216034,-2.7105166736873798e-05,-6.525020580738783e-06,-7.373797406007299e-11,1.4978951412558672e-06,-1.1652212378976401e-05,0.2366200089454651,0.0,-0.0,-0.01041499468373021
4599,175248180870,-23.800546646118164,61.24238586425781,0.004208335652947426,0.9999864410163584,0.0,-0.0,-0.005207473805720072,-1.1368294750013774e-08,-9.374949883067529e-08,-0.023497648537158966,2.4431723431916907e-05,1.3103793207847048e-05,2.3193220677342197e-09,-1.5840805644984357e-06,3.3564156183274463e-06,0.2168521285057068,0.0,-0.0,-0.01041499468373021
4600,175258180870,-23.800546646118164,61.24238586425781,0.003993224818259478,0.9999864410163584,0.0,-0.0,-0.005207473805720072,-1.0618409262974637e-08,-1.295044000926282e-07,-0.021510815247893333,2.4926810510805808e-05,1.2939367479702923e-05,1.1982747016858752e-09,7.498854870391369e-08,-3.5754901546170004e-06,0.19868332147598267,0.0,-0.0,-0.01041499468373021
4601,175268180870,-23.800546646118164,61.24238586425781,0.0037963103968650103,0.9999864410163584,0.0,-0.0,-0.005207473805720072,2.3107542546085824e-09,-4.047844299748249e-07,-0.019691186025738716,-2.5699955585878342e-05,-7.481903594452888e-06,1.8472470220132209e-09,1.2929162949149031e-06,-2.7528003556653857e-05,0.18196292221546173,0.0,-0.0,-0.01041499468373021
4602,175278180869,-23.800546646118164,61.24238586425781,0.003616065951064229,0.9999864410163584,0.0,-0.0,-0.005207473805720072,1.967792861989892e-08,-1.250353847126462e-07,-0.018023833632469177,-7.895445014582947e-05,-2.7530746592674404e-05,-1.975565044887162e-09,1.7367174223181792e-06,2.7974903787253425e-05,0.1667352318763733,0.0,-0.0,-0.01041499468373021
4603,175288180869,-23.800546646118164,61.24238586425781,0.0034510802943259478,0.9999864410163584,0.0,-0.0,-0.005207473805720072,-1.090519585744687e-08,-6.484024339670214e-08,-0.016497468575835228,2.2661317416350357e-05,1.1416423149057664e-05,-4.6340678690193204e-12,-3.058312358916737e-06,6.019514330546372e-06,0.15263649821281433,0.0,-0.0,-0.01041499468373021
4604,175298180869,-23.800546646118164,61.24238586425781,0.00330009451135993,0.9999864410163584,0.0,-0.0,-0.005207473805720072,-6.7100893730298594e-09,1.3781003360691102e-07,-0.015099982731044292,2.345065149711445e-05,1.1306094165774994e-05,-1.1568010993556754e-09,4.195106555471284e-07,2.0265028069843538e-05,0.13974858820438385,0.0,-0.0,-0.01041499468373021
4605,175308180869,-23.800546646118164,61.24238586425781,0.0031618881039321423,0.9999864410163584,0.0,-0.0,-0.005207473805720072,-6.174679434423069e-09,1.7123733186963364e-07,-0.013819627463817596,2.5315159291494638e-05,1.110223001887789e-05,-2.23753196526566e-10,5.354099386067901e-08,3.3427297694288427e-06,0.1280355304479599,0.0,-0.0,-0.01041499468373021
4606,175318180868,-23.800546646118164,61.24238586425781,0.003035430796444416,0.9999864410163584,0.0,-0.0,-0.005207473805720072,-7.136435442589573e-09,9.363886022129009e-08,-0.0126472944393754,2.7219664843869396e-05,1.1275331416982226e-05,-4.2323558546719653e-10,-9.617559726393665e-08,-7.759846994304098e-06,0.11723330616950989,0.0,-0.0,-0.01041499468373021
4607,175328180868,-23.800546646118164,61.24238586425781,0.002919693011790514,0.9999864410163584,0.0,-0.0,-0.005207473805720072,2.2037642821715053e-08,-8.516008165315725e-08,-0.011573800817131996,-7.379300950560719e-05,-2.8866259526694193e-05,-1.3744416715866237e-09,2.917407755376189e-06,-1.7879894585348666e-05,0.10734936594963074,0.0,-0.0,-0.01041499468373021
4608,175338180868,-23.800546646118164,61.24238586425781,0.002813796978443861,0.9999864410163584,0.0,-0.0,-0.005207473805720072,6.8194161428891675e-09,6.57383694147029e-08,-0.0105905057862401,-2.328393020434305e-05,-9.878068340185564e-06,-1.1679123224084265e-09,-1.521822696304298e-06,1.5089844055182766e-05,0.09832949936389923,0.0,-0.0,-0.01041499468373021
4609,175348180868,-23.800546646118164,61.24238586425781,0.0027168653905391693,0.9999864410163584,0.0,-0.0,-0.005207473805720072,-6.375835859273593e-09,1.3455378677917906e-07,-0.00969135295599699,2.8521122658276e-05,9.293127732235007e-06,1.1812579560344094e-11,-1.3195251540309982e-06,6.881541594339069e-06,0.08991528302431107,0.0,-0.0,-0.01041499468373021
4610,175358180868,-23.800546646118164,61.24238586425781,0.002628173679113388,0.9999864410163584,0.0,-0.0,-0.005207473805720072,9.838940329132129e-09,1.074101376730141e-07,-0.008867616765201092,-2.1532559912884608e-05,-1.0725472748163156e-05,-2.3862933851148682e-09,1.6214777360801236e-06,-2.7143648821947863e-06,0.08237361907958984,0.0,-0.0,-0.01041499468373021
4611,175368180867,-23.800546646118164,61.24238586425781,0.002547035226598382,0.9999864410163584,0.0,-0.0,-0.005207473805720072,-7.152294756451738e-09,-2.4430823586385486e-08,-0.008113260380923748,3.122278212686069e-05,8.110243470582645e-06,2.938156606901998e-09,-1.6991234588203952e-06,-1.3184096133045387e-05,0.07543563842773438,0.0,-0.0,-0.01041499468373021
4612,175378180867,-23.800546646118164,61.24238586425781,0.0024728011339902878,0.9999864410163584,0.0,-0.0,-0.005207473805720072,1.0102252367971687e-08,1.0144626116925792e-07,-0.007422056049108505,-2.0024566765641794e-05,-1.125056587625295e-05,-2.976415336419791e-09,1.7254545809919364e-06,1.2587707715283614e-05,0.06912043690681458,0.0,-0.0,-0.01041499468373021
4613,175388180867,-23.800546646118164,61.24238586425781,0.0024048995692282915,0.9999864410163584,0.0,-0.0,-0.005207473805720072,-5.651858092647899e-09,1.6131266988850257e-07,-0.006789665203541517,3.213765739928931e-05,8.643135515740141e-06,2.768943130337931e-10,-1.5754110336274607e-06,5.986640644550789e-06,0.06323908269405365,0.0,-0.0,-0.01041499468373021
4614,175398180867,-23.800546646118164,61.24238586425781,0.0023427961859852076,0.9999864410163584,0.0,-0.0,-0.005207473805720072,9.284301327738831e-09,5.0306894650020695e-08,-0.006211747881025076,-1.7060167010640725e-05,-1.087006057787221e-05,6.353269021985852e-10,1.4936158549971879e-06,-1.1100577467004769e-05,0.057791732251644135,0.0,-0.0,-0.01041499468373021
4615,175408180866,-23.800546646118164,61.24238586425781,0.0022859573364257812,0.9999864410163584,0.0,-0.0,-0.005207473805720072,-5.893921350974551e-09,1.7149874054211978e-07,-0.005683002527803183,3.4569289709907025e-05,9.109146958508063e-06,6.192380636038664e-11,-1.5178222838585498e-06,1.2119184248149395e-05,0.05287453532218933,0.0,-0.0,-0.01041499468373021
4616,175418180866,-23.800546646118164,61.24238586425781,0.002233962994068861,0.9999864410163584,0.0,-0.0,-0.005207473805720072,8.340061974365653e-09,-2.684265609786962e-08,-0.00519810663536191,-1.4848902537778486e-05,-1.0672411917767022e-05,2.7311580774735944e-10,1.423398316546809e-06,-1.9834140402963385e-05,0.048489589244127274,0.0,-0.0,-0.01041499468373021
4617,175428180866,-23.800546646118164,61.24238586425781,0.002186431782320142,0.9999864410163584,0.0,-0.0,-0.005207473805720072,7.684579195199603e-09,-3.470010501160914e-09,-0.004754247609525919,-1.4572796317224856e-05,-1.0811135325639043e-05,7.239049359952787e-10,-6.5548277916605e-08,2.3372645046038087e-06,0.04438590258359909,0.0,-0.0,-0.01041499468373021
4618,175438180866,-23.800546646118164,61.24238586425781,0.002142944373190403,0.9999864410163584,0.0,-0.0,-0.005207473805720072,7.119980161007788e-09,-9.151979440957803e-08,-0.004348478280007839,-1.4412884411285631e-05,-1.1325521882099565e-05,3.6888628263120893e-10,-5.64599034191815e-08,-8.80497827893123e-06,0.040576934814453125,0.0,-0.0,-0.01041499468373021
4619,175448180866,-23.800546646118164,61.24238586425781,0.0021031571086496115,0.9999864410163584,0.0,-0.0,-0.005207473805720072,8.828878073074975e-09,7.482360331323434e-08,-0.0039771366864442825,-1.554276423121337e-05,-1.1315763003949542e-05,-2.55232812662598e-09,1.7088979120671866e-07,1.6634339772281237e-05,0.03713415935635567,0.0,-0.0,-0.01041499468373021
4620,175458180865,-23.800546646118164,61.24238586425781,0.0020668029319494963,0.9999864410163584,0.0,-0.0,-0.005207473805720072,-6.0700702242399984e-09,9.12052087187476e-08,-0.0036372279282659292,3.5965058486908674e-05,8.152957889251411e-06,-3.7237138372780976e-10,-1.4898947711117216e-06,1.6381604837079067e-06,0.033990874886512756,0.0,-0.0,-0.01041499468373021
4621,175468180865,-23.800546646118164,61.24238586425781,0.0020335388835519552,0.9999864410163584,0.0,-0.0,-0.005207473805720072,-4.5591361796937235e-09,1.4700623296448612e-07,-0.0033267878461629152,3.6549565265886486e-05,8.258006346295588e-06,-1.1084645423764528e-09,1.5109340267827065e-07,5.580102424573852e-06,0.0310440082103014,0.0,-0.0,-0.01041499468373021
4622,175478180865,-23.800546646118164,61.24238586425781,0.00200309744104743,0.9999864410163584,0.0,-0.0,-0.005207473805720072,-6.144205588753948e-09,-1.771874380551708e-08,-0.003042306751012802,3.8174774090293795e-05,8.109311238513328e-06,1.8158596848394382e-09,-1.5850693557695195e-07,-1.647249882807955e-05,0.028448108583688736,0.0,-0.0,-0.01041499468373021
4623,175488180865,-23.800546646118164,61.24238586425781,0.0019752883818000555,0.9999864410163584,0.0,-0.0,-0.005207473805720072,9.80099645886412e-09,6.129594254389303e-08,-0.002782354364171624,-1.2558011803776026e-05,-1.1446331882325467e-05,-9.486481045151152e-11,1.5945201994327363e-06,7.901468052295968e-06,0.02599523961544037,0.0,-0.0,-0.01041499468373021
4624,175498180864,-23.800546646118164,61.24238586425781,0.0019498442998155951,0.9999864410163584,0.0,-0.0,-0.005207473805720072,-7.580552185970646e-09,-7.014786262971029e-08,-0.002544345799833536,-5.01384238305036e-05,8.852934115566313e-06,2.292744882836928e-09,-1.7381548786943313e-06,-1.3144381227903068e-05,0.023800857365131378,0.0,-0.0,-0.01041499468373021
4625,175508180864,-23.800546646118164,61.24238586425781,0.0019265746232122183,0.9999864410163584,0.0,-0.0,-0.005207473805720072,1.0666253658087044e-08,1.4363125444560865e-07,-0.00232695578597486,-1.3366649000090547e-05,-1.1493474630697165e-05,-4.579368884094492e-09,1.8246804529553629e-06,2.1377911252784543e-05,0.02173900231719017,0.0,-0.0,-0.01041499468373021
4626,175518180864,-23.800546646118164,61.24238586425781,0.0019052886636927724,0.9999864410163584,0.0,-0.0,-0.005207473805720072,-5.671679126351137e-09,1.14383190918943e-07,-0.0021267414558678865,3.8708407373633236e-05,7.941865987959318e-06,-9.32888419291622e-11,-1.6337932038368308e-06,-2.9248062674014363e-06,0.020021433010697365,0.0,-0.0,-0.01041499468373021
4627,175528180864,-23.800546646118164,61.24238586425781,0.0018858336843550205,0.9999864410163584,0.0,-0.0,-0.005207473805720072,-5.078021558801993e-09,8.513669769172338e-08,-0.0019445704529061913,4.02313526137732e-05,8.038916348596103e-06,1.8490121656000724e-09,5.93657567549144e-08,-2.9246493795653805e-06,0.018217099830508232,0.0,-0.0,-0.01041499468373021
4628,175538180864,-23.800546646118164,61.24238586425781,0.0018680571811273694,0.9999864410163584,0.0,-0.0,-0.005207473805720072,-5.850808282303888e-09,-3.753309218978984e-09,-0.0017772387946024537,4.118133074371144e-05,7.8690118243685e-06,1.5094148153593778e-09,-7.727867057383264e-08,-8.889000127965119e-06,0.016733165830373764,0.0,-0.0,-0.01041499468373021
4629,175548180863,-23.800546646118164,61.24238586425781,0.0018680571811273694,0.9999864410163584,0.0,-0.0,-0.005207473805720072,0.0,-0.0,0.0,0.0,-0.0,-0.0,5.850808406648866e-07,3.753309272269689e-07,0.17772388458251953,0.0,-0.0,-0.01041499468373021
4630,175558180863,-23.800546646118164,61.24238586425781,0.0018680571811273694,0.9999864410163584,0.0,-0.0,-0.005207473805720072,0.0,-0.0,0.0,0.0,-0.0,-0.0,0.0,-0.0,0.0,0.0,-0.0,-0.01041499468373021
4631,175568180863,-23.800546646118164,61.24238586425781,0.0018680571811273694,0.9999864410163584,0.0,-0.0,-0.005207473805720072,0.0,-0.0,0.0,0.0,-0.0,-0.0,0.0,-0.0,0.0,0.0,-0.0,-0.01041499468373021
4632,175578180863,-23.800546646118164,61.24238586425781,0.0018680571811273694,0.9999864410163584,0.0,-0.0,-0.005207473805720072,0.0,-0.0,0.0,0.0,-0.0,-0.0,0.0,-0.0,0.0,0.0,-0.0,-0.01041499468373021
4633,175588180862,-23.800546646118164,61.24238586425781,0.0018680571811273694,0.9999864410163584,0.0,-0.0,-0.005207473805720072,0.0,-0.0,0.0,0.0,-0.0,-0.0,0.0,-0.0,0.0,0.0,-0.0,-0.01041499468373021
4634,175598180862,-23.800546646118164,61.24238586425781,0.0018680571811273694,0.9999864410163584,0.0,-0.0,-0.005207473805720072,0.0,-0.0,0.0,0.0,-0.0,-0.0,0.0,-0.0,0.0,0.0,-0.0,-0.01041499468373021
4635,175608180862,-23.800546646118164,61.24238586425781,0.0018680571811273694,0.9999864410163584,0.0,-0.0,-0.005207473805720072,0.0,-0.0,0.0,0.0,-0.0,-0.0,0.0,-0.0,0.0,0.0,-0.0,-0.01041499468373021
4636,175618180862,-23.800546646118164,61.24238586425781,0.0018680571811273694,0.9999864410163584,0.0,-0.0,-0.005207473805720072,0.0,-0.0,0.0,0.0,-0.0,-0.0,0.0,-0.0,0.0,0.0,-0.0,-0.01041499468373021
4637,175628180862,-23.800546646118164,61.24238586425781,0.0018680571811273694,0.9999864410163584,0.0,-0.0,-0.005207473805720072,0.0,-0.0,0.0,0.0,-0.0,-0.0,0.0,-0.0,0.0,0.0,-0.0,-0.01041499468373021
4638,175638180861,-23.800546646118164,61.24238586425781,0.0018680571811273694,0.9999864410163584,0.0,-0.0,-0.005207473805720072,0.0,-0.0,0.0,0.0,-0.0,-0.0,0.0,-0.0,0.0,0.0,-0.0,-0.01041499468373021
4639,175648180861,-23.800546646118164,61.24238586425781,0.0018680571811273694,0.9999864410163584,0.0,-0.0,-0.005207473805720072,0.0,-0.0,0.0,0.0,-0.0,-0.0,0.0,-0.0,0.0,0.0,-0.0,-0.01041499468373021
4640,175658180861,-23.800546646118164,61.24238586425781,0.0018680571811273694,0.9999864410163584,0.0,-0.0,-0.005207473805720072,0.0,-0.0,0.0,0.0,-0.0,-0.0,0.0,-0.0,0.0,0.0,-0.0,-0.01041499468373021
4641,175668180861,-23.800546646118164,61.24238586425781,0.0018680571811273694,0.9999864410163584,0.0,-0.0,-0.005207473805720072,0.0,-0.0,0.0,0.0,-0.0,-0.0,0.0,-0.0,0.0,0.0,-0.0,-0.01041499468373021
4642,175678180860,-23.800546646118164,61.24238586425781,0.0018680571811273694,0.9999864410163584,0.0,-0.0,-0.005207473805720072,0.0,-0.0,0.0,0.0,-0.0,-0.0,0.0,-0.0,0.0,0.0,-0.0,-0.01041499468373021
4643,175688180860,-23.800546646118164,61.24238586425781,0.0018680571811273694,0.9999864410163584,0.0,-0.0,-0.005207473805720072,0.0,-0.0,0.0,0.0,-0.0,-0.0,0.0,-0.0,0.0,0.0,-0.0,-0.01041499468373021
4644,175698180860,-23.800546646118164,61.24238586425781,0.0018680571811273694,0.9999864410163584,0.0,-0.0,-0.005207473805720072,0.0,-0.0,0.0,0.0,-0.0,-0.0,0.0,-0.0,0.0,0.0,-0.0,-0.01041499468373021
4645,175708180860,-23.800546646118164,61.24238586425781,0.0018680571811273694,0.9999864410163584,0.0,-0.0,-0.005207473805720072,0.0,-0.0,0.0,0.0,-0.0,-0.0,0.0,-0.0,0.0,0.0,-0.0,-0.01041499468373021
4646,175718180860,-23.800546646118164,61.24238586425781,0.0018680571811273694,0.9999864410163584,0.0,-0.0,-0.005207473805720072,0.0,-0.0,0.0,0.0,-0.0,-0.0,0.0,-0.0,0.0,0.0,-0.0,-0.01041499468373021
4647,175728180859,-23.800546646118164,61.24238586425781,0.0018680571811273694,0.9999864410163584,0.0,-0.0,-0.005207473805720072,0.0,-0.0,0.0,0.0,-0.0,-0.0,0.0,-0.0,0.0,0.0,-0.0,-0.01041499468373021
4648,175738180859,-23.800546646118164,61.24238586425781,0.0018680571811273694,0.9999864410163584,0.0,-0.0,-0.005207473805720072,0.0,-0.0,0.0,0.0,-0.0,-0.0,0.0,-0.0,0.0,0.0,-0.0,-0.01041499468373021
4649,175748180859,-23.800546646118164,61.24238586425781,0.0018680571811273694,0.9999864410163584,0.0,-0.0,-0.005207473805720072,0.0,-0.0,0.0,0.0,-0.0,-0.0,0.0,-0.0,0.0,0.0,-0.0,-0.01041499468373021
4650,175758180859,-23.800546646118164,61.24238586425781,0.0018680571811273694,0.9999864410163584,0.0,-0.0,-0.005207473805720072,0.0,-0.0,0.0,0.0,-0.0,-0.0,0.0,-0.0,0.0,0.0,-0.0,-0.01041499468373021
4651,175768180858,-23.800546646118164,61.24238586425781,0.0018680571811273694,0.9999864410163584,0.0,-0.0,-0.005207473805720072,0.0,-0.0,0.0,0.0,-0.0,-0.0,0.0,-0.0,0.0,0.0,-0.0,-0.01041499468373021
4652,175778180858,-23.800546646118164,61.24238586425781,0.0018680571811273694,0.9999864410163584,0.0,-0.0,-0.005207473805720072,0.0,-0.0,0.0,0.0,-0.0,-0.0,0.0,-0.0,0.0,0.0,-0.0,-0.01041499468373021
4653,175788180858,-23.800546646118164,61.24238586425781,0.0018680571811273694,0.9999864410163584,0.0,-0.0,-0.005207473805720072,0.0,-0.0,0.0,0.0,-0.0,-0.0,0.0,-0.0,0.0,0.0,-0.0,-0.01041499468373021
4654,175798180858,-23.800546646118164,61.24238586425781,0.0018680571811273694,0.9999864410163584,0.0,-0.0,-0.005207473805720072,0.0,-0.0,0.0,0.0,-0.0,-0.0,0.0,-0.0,0.0,0.0,-0.0,-0.01041499468373021
4655,175808180858,-23.800546646118164,61.24238586425781,0.0018680571811273694,0.9999864410163584,0.0,-0.0,-0.005207473805720072,0.0,-0.0,0.0,0.0,-0.0,-0.0,0.0,-0.0,0.0,0.0,-0.0,-0.01041499468373021
4656,175818180857,-23.800546646118164,61.24238586425781,0.0018680571811273694,0.9999864410163584,0.0,-0.0,-0.005207473805720072,0.0,-0.0,0.0,0.0,-0.0,-0.0,0.0,-0.0,0.0,0.0,-0.0,-0.01041499468373021
4657,175828180857,-23.800546646118164,61.24238586425781,0.0018680571811273694,0.9999864410163584,0.0,-0.0,-0.005207473805720072,0.0,-0.0,0.0,0.0,-0.0,-0.0,0.0,-0.0,0.0,0.0,-0.0,-0.01041499468373021
4658,175838180857,-23.800546646118164,61.24238586425781,0.0018058394780382514,0.9999864410163584,0.0,-0.0,-0.005207473805720072,9.971101277983507e-09,-4.826883355235623e-07,-0.006220826879143715,-4.7742840251885355e-05,-1.9420111129875295e-05,5.676411785060509e-09,9.971100780603592e-07,-4.82688337797299e-05,-0.6220827102661133,0.0,-0.0,-0.01041499468373021
4659,175848180857,-23.800546646118164,61.24238586425781,0.001753158518113196,0.9999864410163584,0.0,-0.0,-0.005207473805720072,1.13952882685453e-08,-2.7123249424221285e-07,-0.005266389809548855,-4.8994716053130105e-05,-1.970763514691498e-05,-5.025912325207216e-11,1.4241869905617932e-07,2.1145584469195455e-05,0.0954437106847763,0.0,-0.0,-0.01041499468373021
4660,175858180856,-23.800546646118164,61.24238586425781,0.0017088699387386441,0.9999864410163584,0.0,-0.0,-0.005207473805720072,-5.187863472144727e-09,-3.814355125086877e-07,-0.004429788328707218,-1.0306698641215917e-05,3.235917915844766e-07,4.262926012188473e-09,-1.6583151136728702e-06,-1.1020301826647483e-05,0.08366014808416367,0.0,-0.0,-0.01041499468373021
4661,175868180856,-23.800546646118164,61.24238586425781,0.001671867328695953,0.9999864410163584,0.0,-0.0,-0.005207473805720072,-1.859381626445611e-08,-3.163067958666943e-07,-0.0037020014133304358,-4.870063276030123e-05,2.079546538880095e-05,2.0885404516945982e-09,-1.340595304100134e-06,6.5128715505125e-06,0.07277869433164597,0.0,-0.0,-0.01041499468373021
4662,175878180856,-23.800546646118164,61.24238586425781,0.0016411590622738004,0.9999864410163584,0.0,-0.0,-0.005207473805720072,-2.092228834627008e-09,-2.56071274407077e-07,-0.003069124184548855,2.1786179331684252e-06,5.76678246488882e-07,-1.1909248032182518e-09,1.6501587651873706e-06,6.0235520322748926e-06,0.06328772008419037,0.0,-0.0,-0.01041499468373021
4663,175888180856,-23.800546646118164,61.24238586425781,0.001615982037037611,0.9999864410163584,0.0,-0.0,-0.005207473805720072,1.2623243783593807e-08,-1.949082530927626e-07,-0.0025176142808049917,-4.834458013647236e-05,-1.887437974801287e-05,5.919965906375779e-11,1.4715471934323432e-06,6.116302301961696e-06,0.055150989443063736,0.0,-0.0,-0.01041499468373021
4664,175898180856,-23.800546646118164,61.24238586425781,0.001595573383383453,0.9999864410163584,0.0,-0.0,-0.005207473805720072,-2.2953190459418238e-09,-5.783239842571675e-08,-0.0020397661719471216,2.8349934382276842e-06,9.195719030685723e-07,-1.9229631775807832e-11,-1.4918562101229327e-06,1.3707585821975954e-05,0.04778481274843216,0.0,-0.0,-0.01041499468373021
4665,175908180855,-23.800546646118164,61.24238586425781,0.00157928466796875,0.9999864410163584,0.0,-0.0,-0.005207473805720072,-1.4256752445263032e-09,-3.089204980710747e-08,-0.001627912512049079,4.374736818135716e-06,1.448475359211443e-06,2.5996718666654317e-10,8.696437703292759e-08,2.694034947126056e-06,0.04118536412715912,0.0,-0.0,-0.01041499468373021
4666,175918180855,-23.800546646118164,61.24238586425781,0.0015665816608816385,0.9999864410163584,0.0,-0.0,-0.005207473805720072,-1.7672799890178226e-09,-4.137302767048823e-08,-0.0012720966478809714,5.795359811600065e-06,1.8147542277802131e-06,3.329426456755158e-10,-3.4160475337330354e-08,-1.04809782897064e-06,0.03558158501982689,0.0,-0.0,-0.01041499468373021
4667,175928180855,-23.800546646118164,61.24238586425781,0.0015569304814562201,0.9999864410163584,0.0,-0.0,-0.005207473805720072,-1.8122935374620397e-09,-1.0363985225581018e-08,-0.000966682389844209,7.20629577699583e-06,2.3161308035923867e-06,3.481675503458348e-10,-4.501354844421712e-09,3.1009044505481143e-06,0.030541425570845604,0.0,-0.0,-0.01041499468373021
4668,175938180855,-23.800546646118164,61.24238586425781,0.0015498732682317495,0.9999864410163584,0.0,-0.0,-0.005207473805720072,-1.938204041707081e-09,2.365229123668655e-09,-0.0007063674856908619,-4.356279987405287e-06,2.8150629987067077e-06,4.2031267355469026e-10,-1.2591049980414937e-08,1.2729213949569385e-06,0.0260314904153347,0.0,-0.0,-0.01041499468373021
4669,175948180854,-23.800546646118164,61.24238586425781,0.0015450286446139216,0.9999864410163584,0.0,-0.0,-0.005207473805720072,-2.098013540674515e-09,2.2585782133432986e-08,-0.00048538207192905247,1.0140965059690643e-05,3.182947239110945e-06,-5.501568089982811e-10,-1.5980949896743368e-08,2.022055241468479e-06,0.022098541259765625,0.0,-0.0,-0.01041499468373021
4670,175958180854,-23.800546646118164,61.24238586425781,0.001542053185403347,0.9999864410163584,0.0,-0.0,-0.005207473805720072,-3.577971696699933e-09,-1.0599626421026187e-07,-0.0002961349382530898,1.2250357940501999e-05,3.3812325455073733e-06,2.403801158123997e-09,-1.4799582004343392e-07,-1.2858204172516707e-05,0.018924713134765625,0.0,-0.0,-0.01041499468373021
4671,175968180854,-23.800546646118164,61.24238586425781,0.0015406799502670765,0.9999864410163584,0.0,-0.0,-0.005207473805720072,-2.4135442533435025e-09,4.3915260761195896e-08,-0.0001366138458251953,1.3039760233368725e-05,3.915066372428555e-06,3.166795492504093e-09,1.164427416711078e-07,1.4991152966103982e-05,0.015952108427882195,0.0,-0.0,-0.01041499468373021
4672,175978180854,-23.800546646118164,61.24238586425781,0.0015406799502670765,0.9999864410163584,0.0,-0.0,-0.005207473805720072,-3.4620653011074864e-09,-4.587053226146054e-08,-3.0994415283203125e-06,1.647850808694784e-06,4.2233496060362086e-06,1.7215606717968512e-10,-1.0485210566457681e-07,-8.97857898962684e-06,0.0133514404296875,0.0,-0.0,-0.01041499468373021
4673,175988180854,-23.800546646118164,61.24238586425781,0.0015417098766192794,0.9999864410163584,0.0,-0.0,-0.005207473805720072,1.264968219061302e-08,7.508028687652768e-08,0.00010643959103617817,-3.6035784432897344e-05,-1.5087479368958157e-05,-2.421978395616975e-09,1.6111748664116021e-06,1.209508172905771e-05,0.010953903198242188,0.0,-0.0,-0.01041499468373021
4674,175998180853,-23.800546646118164,61.24238586425781,0.0015436934772878885,0.9999864410163584,0.0,-0.0,-0.005207473805720072,-3.920175739580145e-09,5.789826218460803e-08,0.00019743919256143272,1.6681198758305982e-05,4.801403974852292e-06,6.391538964756194e-10,-1.656985887166229e-06,-1.7182024976136745e-06,0.009099960327148438,0.0,-0.0,-0.01041499468373021
4675,176008180853,-23.800546646118164,61.24238586425781,0.001546401996165514,0.9999864410163584,0.0,-0.0,-0.005207473805720072,1.2520385617165175e-08,1.1682304545956868e-07,0.00027106283232569695,-3.311052205390297e-05,-1.4355538951349445e-05,-1.9664823103227036e-09,1.6440560557384742e-06,5.8924783843394835e-06,0.007362363860011101,0.0,-0.0,-0.01041499468373021
4676,176018180853,-23.800546646118164,61.24238586425781,0.0015497207641601562,0.9999864410163584,0.0,-0.0,-0.005207473805720072,-4.552857646444863e-09,3.671464909871247e-08,0.00033053397783078253,6.767200375179527e-06,5.502698513737414e-06,1.386440628969865e-09,-1.7073243725462817e-06,-8.010839337657671e-06,0.005947114434093237,0.0,-0.0,-0.01041499468373021
4677,176028180853,-23.800546646118164,61.24238586425781,0.001553497277200222,0.9999864410163584,0.0,-0.0,-0.005207473805720072,-3.771370771232796e-09,4.932145714064973e-08,0.0003770160546991974,8.209352017729543e-06,5.951389539404772e-06,-1.7518961281659529e-10,7.814868752120674e-08,1.2606808468262898e-06,0.004648207686841488,0.0,-0.0,-0.01041499468373021
4678,176038180852,-23.800546646118164,61.24238586425781,0.0015576170990243554,0.9999864410163584,0.0,-0.0,-0.005207473805720072,-3.5304807965985674e-09,1.0505782910286143e-07,0.00041199682164005935,2.240320827695541e-05,6.321922228380572e-06,-7.48168971220764e-10,2.4088997463422857e-08,5.573637281486299e-06,0.003498076694086194,0.0,-0.0,-0.01041499468373021
4679,176048180852,-23.800546646118164,61.24238586425781,0.0015620040940120816,0.9999864410163584,0.0,-0.0,-0.005207473805720072,-5.117641865837186e-09,-4.173642764726537e-08,0.00043954848661087453,2.4299110009451397e-05,6.413941719074501e-06,2.2873609673013107e-09,-1.58716105147505e-07,-1.4679426385555416e-05,0.002755166497081518,0.0,-0.0,-0.01041499468373021
4680,176058180852,-23.800546646118164,61.24238586425781,0.0015665816608816385,0.9999864410163584,0.0,-0.0,-0.005207473805720072,-3.4556104644423158e-09,1.4838931861049787e-07,0.0004572582256514579,2.459519964759238e-05,6.843994924565777e-06,-8.195493728102576e-10,1.6620313658677333e-07,1.901257382996846e-05,0.0017709739040583372,0.0,-0.0,-0.01041499468373021
4681,176068180852,-23.800546646118164,61.24238586425781,0.0015712737804278731,0.9999864410163584,0.0,-0.0,-0.005207473805720072,1.0128239580353693e-08,2.3312876074044198e-09,0.00046894073602743447,-2.4361575924558565e-05,-1.2672909178945702e-05,8.6297030632565e-10,1.3583850204668124e-06,-1.4605802789446898e-05,0.0011682510375976562,0.0,-0.0,-0.01041499468373021
4682,176078180851,-23.800546646118164,61.24238586425781,0.0015760039677843451,0.9999864410163584,0.0,-0.0,-0.005207473805720072,-6.555224807414106e-09,-5.7539068620826583e-08,0.00047426222590729594,2.7886577299796045e-05,6.760862561350223e-06,2.694783729495498e-09,-1.6683464991729124e-06,-5.9870358199987095e-06,0.0005321489879861474,0.0,-0.0,-0.01041499468373021
4683,176088180851,-23.800546646118164,61.24238586425781,0.0015807723393663764,0.9999864410163584,0.0,-0.0,-0.005207473805720072,-5.143531378593025e-09,-8.360001579887921e-09,0.00047635077498853207,2.8482570996857248e-05,6.865740942885168e-06,1.5402805697561917e-09,1.4116933755303762e-07,4.917906608170597e-06,0.0002088549081236124,0.0,-0.0,-0.01041499468373021
4684,176098180851,-23.800546646118164,61.24238586425781,0.0015855026431381702,0.9999864410163584,0.0,-0.0,-0.005207473805720072,-5.069985320460546e-09,3.601530185193269e-09,0.0004741573357023299,2.9508009902201593e-05,6.965433385630604e-06,1.7874127733463752e-09,7.354605813247872e-09,1.19615322091704e-06,-0.00021934392862021923,0.0,-0.0,-0.01041499468373021
4685,176108180851,-23.800546646118164,61.24238586425781,0.001590194646269083,0.9999864410163584,0.0,-0.0,-0.005207473805720072,-5.813446612989992e-09,-8.19456786871342e-08,0.0004676818789448589,3.045364428544417e-05,6.768543698854046e-06,1.4966640149438604e-09,-7.434613280565827e-08,-8.55472080729669e-06,-0.0006475456757470965,0.0,-0.0,-0.01041499468373021
4686,176118180851,-23.800546646118164,61.24238586425781,0.0015947723295539618,0.9999864410163584,0.0,-0.0,-0.005207473805720072,2.548268085433847e-08,5.0414854513292084e-09,0.0004590702010318637,-7.169324817368761e-05,-3.252634996897541e-05,-1.7583170475177212e-09,3.129612878183252e-06,8.698716555954888e-06,-0.0008611677912995219,0.0,-0.0,-0.01041499468373021
4687,176128180850,-23.800546646118164,61.24238586425781,0.0015992354601621628,0.9999864410163584,0.0,-0.0,-0.005207473805720072,-5.873009634171922e-09,9.141361090314604e-08,0.0004480075731407851,3.080156602663919e-05,6.5201193137909286e-06,7.624806896977532e-10,-3.1355689316114876e-06,8.637212886242196e-06,-0.0011062627891078591,0.0,-0.0,-0.01041499468373021
4688,176138180850,-23.800546646118164,61.24238586425781,0.0016035842709243298,0.9999864410163584,0.0,-0.0,-0.005207473805720072,-3.038566509516727e-09,2.07651638106654e-07,0.00043502807966433465,3.1646435672882944e-05,6.975645646889461e-06,-7.140646962611186e-10,2.834443080246274e-07,1.162380249297712e-05,-0.0012979493476450443,0.0,-0.0,-0.01041499468373021
4689,176148180850,-23.800546646118164,61.24238586425781,0.001607818529009819,0.9999864410163584,0.0,-0.0,-0.005207473805720072,1.0794912519429545e-08,4.307797141223091e-08,0.0004220962291583419,-1.8186297893407755e-05,-1.3046818821749184e-05,9.602857398149922e-10,1.383347921546374e-06,-1.6457366655231453e-05,-0.001293185050599277,0.0,-0.0,-0.01041499468373021
4690,176158180850,-23.800546646118164,61.24238586425781,0.0016118620987981558,0.9999864410163584,0.0,-0.0,-0.005207473805720072,-5.404686920229551e-09,4.199189973519424e-08,0.0004062175576109439,3.205897519364953e-05,6.538324214488966e-06,2.310248436998563e-09,-1.61996001679654e-06,-1.0860716770366707e-07,-0.0015878671547397971,0.0,-0.0,-0.01041499468373021
4691,176168180849,-23.800546646118164,61.24238586425781,0.0016157912323251367,0.9999864410163584,0.0,-0.0,-0.005207473805720072,-5.787965218218005e-09,-5.613787124048031e-08,0.00039136887062340975,-5.4520121921086684e-05,7.971336344780866e-06,-8.917142579889514e-09,-3.8327829798845414e-08,-9.812977623369079e-06,-0.0014848686987534165,0.0,-0.0,-0.01041499468373021
4692,176178180849,-23.800546646118164,61.24238586425781,0.001619529677554965,0.9999864410163584,0.0,-0.0,-0.005207473805720072,1.011936223704879e-08,1.7056098755574567e-08,0.0003755378711502999,-1.739394610922318e-05,-1.254102880920982e-05,3.682427029971791e-09,1.5907327224340406e-06,7.319397354876855e-06,-0.0015830999473109841,0.0,-0.0,-0.01041499468373021
4693,176188180849,-23.800546646118164,61.24238586425781,0.0016231155022978783,0.9999864410163584,0.0,-0.0,-0.005207473805720072,9.036011050511661e-09,1.887107137221733e-09,0.00036043167347088456,-1.6969022908597253e-05,-1.2627316209545825e-05,-8.913710880520398e-10,-1.0833511510099925e-07,-1.5168991467362503e-06,-0.0015106197679415345,0.0,-0.0,-0.01041499468373021
4694,176198180849,-23.800546646118164,61.24238586425781,0.0016265487065538764,0.9999864410163584,0.0,-0.0,-0.005207473805720072,-2.1158538032750585e-08,-4.080671078821041e-10,0.0003429412900004536,-1.6833260815474205e-05,2.7362782930140384e-05,4.005574094634312e-09,-3.019454879904515e-06,-2.2951742550958443e-07,-0.001749038347043097,0.0,-0.0,-0.01041499468373021
4695,176208180849,-23.800546646118164,61.24238586425781,0.0016298294067382812,0.9999864410163584,0.0,-0.0,-0.005207473805720072,-3.918992241835895e-09,3.681949323208755e-08,0.0003269672452006489,3.4293727367185056e-05,7.144006303860806e-06,1.4413191751216914e-09,1.723954710541875e-06,3.7227562188490992e-06,-0.0015974044799804688,0.0,-0.0,-0.01041499468373021
4696,176218180848,-23.800546646118164,61.24238586425781,0.0016329193022102118,0.9999864410163584,0.0,-0.0,-0.005207473805720072,-5.2867310529336464e-09,7.439323379543339e-09,0.0003099155437666923,3.5369892430026084e-05,7.322135388676543e-06,-2.413910404897024e-09,-1.367738775570615e-07,-2.9380169053183636e-06,-0.0017051701433956623,0.0,-0.0,-0.01041499468373021
4697,176228180848,-23.800546646118164,61.24238586425781,0.0016358565771952271,0.9999864410163584,0.0,-0.0,-0.005207473805720072,2.4309445123549267e-08,-7.149306924247867e-08,0.0002951144997496158,-6.574077269760892e-05,-3.198279955540784e-05,-1.188073195379502e-08,2.959617631859146e-06,-7.893239853729028e-06,-0.0014801044017076492,0.0,-0.0,-0.01041499468373021
4698,176238180848,-23.800546646118164,61.24238586425781,0.0016386413481086493,0.9999864410163584,0.0,-0.0,-0.005207473805720072,-6.582829392698386e-09,6.095342541811988e-08,0.00027937887352891266,3.516805008985102e-05,6.943396783753997e-06,1.5622839910633957e-08,-3.0892274480720516e-06,1.3244650290289428e-05,-0.0015735626220703125,0.0,-0.0,-0.01041499468373021
4699,176248180848,-23.800546646118164,61.24238586425781,0.0016386413481086493,0.9999864410163584,0.0,-0.0,-0.005207473805720072,0.0,-0.0,0.0,0.0,-0.0,-0.0,6.582829428225523e-07,-6.095342541811988e-06,-0.027937887236475945,0.0,-0.0,-0.01041499468373021
4700,176258180847,-23.800546646118164,61.24238586425781,0.0016386413481086493,0.9999864410163584,0.0,-0.0,-0.005207473805720072,-1.4582718144140472e-08,3.692668570920432e-08,6.466865306720138e-05,5.0401940825395286e-05,1.9316343241371214e-05,5.547890591373061e-09,-1.4582718677047524e-06,3.6926685424987227e-06,0.006466865539550781,0.0,-0.0,-0.01041499468373021
4701,176268180847,-23.800546646118164,61.24238586425781,0.0016401290195062757,0.9999864410163584,0.0,-0.0,-0.005207473805720072,1.4372960599473572e-09,-3.017682104200503e-08,8.58211496961303e-05,-9.101615319195844e-07,-9.35870502871694e-07,-8.016271202393455e-09,1.6020013617890072e-06,-6.710350589855807e-06,0.0021152496337890625,0.0,-0.0,-0.01041499468373021
4702,176278180847,-23.800546646118164,61.24238586425781,0.0016411590622738004,0.9999864410163584,0.0,-0.0,-0.005207473805720072,1.261144522146651e-09,-5.1470507855810865e-09,0.00010220527474302799,-2.114513563356013e-06,-1.7639241605138523e-06,1.5526735452908724e-09,-1.7615153780070614e-08,2.502976940377266e-06,0.0016384124755859375,0.0,-0.0,-0.01041499468373021
4703,176288180847,-23.800546646118164,61.24238586425781,0.0016423034248873591,0.9999864410163584,0.0,-0.0,-0.005207473805720072,-1.3297387191357757e-08,3.626404421197549e-08,0.0001151370961451903,4.850241384701803e-05,1.7496669897809625e-05,6.1243072835281964e-09,-1.455853180232225e-06,4.141109457123093e-06,0.0012931821402162313,0.0,-0.0,-0.01041499468373021
4704,176298180847,-23.800546646118164,61.24238586425781,0.0016435622237622738,0.9999864410163584,0.0,-0.0,-0.005207473805720072,-1.2240024993559473e-08,7.088324149862046e-09,0.00012513159890659153,4.8305457312380895e-05,1.706771581666544e-05,-2.2612201000526966e-09,1.0573621977982839e-07,-2.917571919169859e-06,0.0009994502179324627,0.0,-0.0,-0.01041499468373021
4705,176308180846,-23.800546646118164,61.24238586425781,0.001644897391088307,0.9999864410163584,0.0,-0.0,-0.005207473805720072,3.1215254825411876e-09,-3.4946747717867765e-08,0.0001321125018876046,-3.6815333714912413e-06,-3.3421977150283055e-06,-6.370081351292356e-09,1.5361549685621867e-06,-4.203507160127629e-06,0.000698090298101306,0.0,-0.0,-0.01041499468373021
4706,176318180846,-23.800546646118164,61.24238586425781,0.0016462707426398993,0.9999864410163584,0.0,-0.0,-0.005207473805720072,1.7898662107995733e-08,-4.4093894757679664e-08,0.00013789176591672003,-5.6954773754114285e-05,-2.3958755264175124e-05,-3.621256183805599e-09,1.4777136811972014e-06,-9.147146897703351e-07,0.0005779264029115438,0.0,-0.0,-0.01041499468373021
4707,176328180846,-23.800546646118164,61.24238586425781,0.001647682162001729,0.9999864410163584,0.0,-0.0,-0.005207473805720072,-1.217594203239969e-08,6.389838347331533e-08,0.00013927459076512605,4.216859815642238e-05,1.4875232409394812e-05,1.405803384812998e-08,-3.0074602364038583e-06,1.0799228221003432e-05,0.00013828248484060168,0.0,-0.0,-0.01041499468373021
4708,176338180846,-23.800546646118164,61.24238586425781,0.0016490935813635588,0.9999864410163584,0.0,-0.0,-0.005207473805720072,4.228322580956956e-09,-2.5858225782826594e-08,0.00014104842557571828,-7.884298611315899e-06,-4.846230694965925e-06,-9.325042071850476e-09,1.640426489757374e-06,-8.975661330623552e-06,0.0001773834810592234,0.0,-0.0,-0.01041499468373021
4709,176348180845,-23.800546646118164,61.24238586425781,0.0016505050007253885,0.9999864410163584,0.0,-0.0,-0.005207473805720072,3.18167292512328e-09,-6.915363570669797e-08,0.0001412296260241419,-9.686925477581099e-05,-4.448445906746201e-06,-4.868411007663553e-09,-1.0466496291883232e-07,-4.329540843173163e-06,1.8120044842362404e-05,0.0,-0.0,-0.01041499468373021
4710,176358180845,-23.800546646118164,61.24238586425781,0.0016519164200872183,0.9999864410163584,0.0,-0.0,-0.005207473805720072,4.630224204049682e-09,4.948573817387114e-08,0.00014015196938998997,-1.0446881788084283e-05,-5.7973797993327025e-06,1.0426352226033941e-08,1.4485512167539127e-07,1.186393819807563e-05,-0.00010776566341519356,0.0,-0.0,-0.01041499468373021
4711,176368180845,-23.800546646118164,61.24238586425781,0.0016532897716388106,0.9999864410163584,0.0,-0.0,-0.005207473805720072,-1.027245843943092e-08,4.365594463706657e-08,0.00013748169294558465,4.034104131278582e-05,1.3407227015704848e-05,2.6495394767067637e-09,-1.4902682323736371e-06,-5.829793394696026e-07,-0.00026702764444053173,0.0,-0.0,-0.01041499468373021
4712,176378180845,-23.800546646118164,61.24238586425781,0.0016546630067750812,0.9999864410163584,0.0,-0.0,-0.005207473805720072,5.462275964873697e-09,-2.9356492348142638e-08,0.00013565062545239925,-1.0505293175810948e-05,-6.579060936928727e-06,-8.826690489627254e-09,1.5734734688521712e-06,-7.301243840629468e-06,-0.0001831067493185401,0.0,-0.0,-0.01041499468373021
4713,176388180845,-23.800546646118164,61.24238586425781,0.0016559981741011143,0.9999864410163584,0.0,-0.0,-0.005207473805720072,5.3045314807320665e-09,-5.6000155623792125e-09,0.00013304709864314646,-1.1884038030984811e-05,-7.432684469677042e-06,1.3474037441341125e-09,-1.577444841416309e-08,2.375647682129056e-06,-0.00026035268092527986,0.0,-0.0,-0.01041499468373021
4714,176398180844,-23.800546646118164,61.24238586425781,0.0016572570893913507,0.9999864410163584,0.0,-0.0,-0.005207473805720072,5.566404226442501e-09,-1.7034312849162347e-09,0.00012776374933309853,-1.2392352800816298e-05,-7.806373105267994e-06,4.662726871274003e-10,2.6187274571043417e-08,3.8965845305938274e-07,-0.0005283349310047925,0.0,-0.0,-0.01041499468373021
4715,176408180844,-23.800546646118164,61.24238586425781,0.0016585158882662654,0.9999864410163584,0.0,-0.0,-0.005207473805720072,5.9607900837477246e-09,-1.0695402341553972e-09,0.000124273297842592,-1.2746932952723e-05,-8.343203262484167e-06,5.0904825493747197e-11,3.943858573052239e-08,6.338910196745928e-08,-0.000349045149050653,0.0,-0.0,-0.01041499468373021
4716,176418180844,-23.800546646118164,61.24238586425781,0.0016596984351053834,0.9999864410163584,0.0,-0.0,-0.005207473805720072,-8.584657429366871e-09,3.6277857162758664e-08,0.00012007712939521298,3.777815800276585e-05,1.089114448404871e-05,5.587182716482175e-09,-1.454544758416887e-06,3.7347397210396593e-06,-0.0004196168447379023,0.0,-0.0,-0.01041499468373021
4717,176428180844,-23.800546646118164,61.24238586425781,0.001660842914134264,0.9999864410163584,0.0,-0.0,-0.005207473805720072,-7.794537459915318e-09,7.172647809028376e-09,0.00011438369256211445,3.8369013054762036e-05,1.0806582395161968e-05,-2.2714294889425446e-09,7.901199694515526e-08,-2.910520834120689e-06,-0.0005693436833098531,0.0,-0.0,-0.01041499468373021
4718,176438180843,-23.800546646118164,61.24238586425781,0.0016619490925222635,0.9999864410163584,0.0,-0.0,-0.005207473805720072,6.982084244100406e-09,-3.375146562234477e-08,0.00011014938354492188,-1.1375529538781848e-05,-8.811986845103092e-06,-6.183257905689743e-09,1.4776621810597135e-06,-4.092411472811364e-06,-0.00042343090171925724,0.0,-0.0,-0.01041499468373021
4719,176448180843,-23.800546646118164,61.24238586425781,0.0016630172031000257,0.9999864410163584,0.0,-0.0,-0.005207473805720072,6.566521992823482e-09,-5.756976229065458e-09,0.00010535240289755166,-1.2061320376233198e-05,-9.266398592444602e-06,2.0526917943186618e-09,-4.1556226904049254e-08,2.79944879366667e-06,-0.0004796980647370219,0.0,-0.0,-0.01041499468373021
4720,176458180843,-23.800546646118164,61.24238586425781,0.0016630172031000257,0.9999864410163584,0.0,-0.0,-0.005207473805720072,-7.928649736754778e-09,3.584893093488972e-08,0.00010002135968534276,3.8741080061299726e-05,9.938758921634872e-06,6.1848677290754495e-09,-1.4495171853923239e-06,4.1605908336350694e-06,-0.0005331042921170592,0.0,-0.0,-0.01041499468373021
4721,176468180843,-23.800546646118164,61.24238586425781,0.0016649627359583974,0.9999864410163584,0.0,-0.0,-0.005207473805720072,7.569822990660668e-09,-2.986677927196979e-08,9.588241664459929e-05,-1.1189656106580514e-05,-9.623076039133593e-06,-7.746392860497053e-09,1.5498471839237027e-06,-6.571571248059627e-06,-0.000413894304074347,0.0,-0.0,-0.01041499468373021
4722,176478180843,-23.800546646118164,61.24238586425781,0.0016649627359583974,0.9999864410163584,0.0,-0.0,-0.005207473805720072,6.243965344765456e-09,-6.955170306355285e-08,9.057045099325478e-05,-9.9723540188279e-05,-8.824147698760498e-06,-4.328108982321055e-09,-1.3258576814223488e-07,-3.968492364947451e-06,-0.0005311965942382812,0.0,-0.0,-0.01041499468373021
4723,176488180842,-23.800546646118164,61.24238586425781,0.001666755648329854,0.9999864410163584,0.0,-0.0,-0.005207473805720072,-7.585443384527935e-09,8.789211847215483e-08,8.63265959196724e-05,3.9393115002894774e-05,1.009612788038794e-05,1.630583135181496e-08,-1.3829409226673306e-06,1.5744382835691795e-05,-0.0004243855073582381,0.0,-0.0,-0.01041499468373021
4724,176498180842,-23.800546646118164,61.24238586425781,0.001666755648329854,0.9999864410163584,0.0,-0.0,-0.005207473805720072,7.790367462234826e-09,-2.2798202437002146e-08,8.119583071675152e-05,-1.0866740922210738e-05,-9.787448107090313e-06,-1.0911959336112886e-08,1.5375810562545666e-06,-1.1069032552768476e-05,-0.0005130765493959188,0.0,-0.0,-0.01041499468373021
4725,176508180842,-23.800546646118164,61.24238586425781,0.0016683196881785989,0.9999864410163584,0.0,-0.0,-0.005207473805720072,6.787661099849629e-09,-3.1864577643148095e-09,7.719993300270289e-05,-1.0157604265259579e-05,-9.605733794160187e-06,8.656149685926096e-10,-1.0027063979123341e-07,1.961174575626501e-06,-0.0003995897714048624,0.0,-0.0,-0.01041499468373021
4726,176518180842,-23.800546646118164,61.24238586425781,0.0016683196881785989,0.9999864410163584,0.0,-0.0,-0.005207473805720072,-8.55794279885913e-09,-2.83286087920942e-08,7.370948878815398e-05,-4.757812712341547e-05,1.0801876669574995e-05,-7.916887284631358e-11,-1.5345603969763033e-06,-2.5142151116597233e-06,-0.00034904442145489156,0.0,-0.0,-0.01041499468373021
4727,176528180841,-23.800546646118164,61.24238586425781,0.0016697311075404286,0.9999864410163584,0.0,-0.0,-0.005207473805720072,-6.453725998056825e-09,5.809271286238982e-08,6.91604582243599e-05,3.9820271922508255e-05,9.581171980244108e-06,7.800760037923737e-09,2.1042167475116003e-07,8.642132343084086e-06,-0.00045490305637940764,0.0,-0.0,-0.01041499468373021
4728,176538180841,-23.800546646118164,61.24238586425781,0.0016697311075404286,0.9999864410163584,0.0,-0.0,-0.005207473805720072,7.624194608979451e-09,-2.5851381479924385e-08,6.575584120582789e-05,-8.938917744671926e-06,-9.641288670536596e-06,-9.088431340842362e-09,1.4077920695854118e-06,-8.394409633183386e-06,-0.0003404617018532008,0.0,-0.0,-0.01041499468373021
4729,176548180841,-23.800546646118164,61.24238586425781,0.0016709899064153433,0.9999864410163584,0.0,-0.0,-0.005207473805720072,6.926536233464731e-09,-3.985546559448494e-09,6.220817158464342e-05,-8.850092854117975e-06,-9.805265108298045e-06,1.2202674426475824e-09,-6.976583932782887e-08,2.186583515140228e-06,-0.0003547669621184468,0.0,-0.0,-0.01041499468373021
4730,176558180841,-23.800546646118164,61.24238586425781,0.0016709899064153433,0.9999864410163584,0.0,-0.0,-0.005207473805720072,7.092804565900224e-09,-8.659517547471296e-10,5.810737638967112e-05,-8.680519385961816e-06,-1.002251428872114e-05,3.94012017457257e-10,1.66268332435493e-08,3.1195946803563857e-07,-0.00041007951949723065,0.0,-0.0,-0.01041499468373021
4731,176568180841,-23.800546646118164,61.24238586425781,0.0016720962012186646,0.9999864410163584,0.0,-0.0,-0.005207473805720072,-7.735987850310266e-09,3.704226614331674e-08,5.389213401940651e-05,4.26267106377054e-05,9.610279448679648e-06,5.715639073144985e-09,-1.4828792700427584e-06,3.7908218928350834e-06,-0.00042152422247454524,0.0,-0.0,-0.01041499468373021
4732,176578180840,-23.800546646118164,61.24238586425781,0.0016720962012186646,0.9999864410163584,0.0,-0.0,-0.005207473805720072,-7.149306480158657e-09,7.920525568749781e-09,5.1708218961721286e-05,4.382311090012081e-05,9.817658792599104e-06,-2.2305832736435605e-09,5.86681352388041e-08,-2.9121740681148367e-06,-0.00021839150576852262,0.0,-0.0,-0.01041499468373021
4733,176588180840,-23.800546646118164,61.24238586425781,0.0016720962012186646,0.9999864410163584,0.0,-0.0,-0.005207473805720072,7.46763717529575e-09,-3.454816877024314e-08,4.718780473922379e-05,-7.4589620453480165e-06,-9.572523595124949e-06,-6.301186683543847e-09,1.4616944099543616e-06,-4.246869593771407e-06,-0.0004520414222497493,0.0,-0.0,-0.01041499468373021
4734,176598180840,-23.800546646118164,61.24238586425781,0.0016735458048060536,0.9999864410163584,0.0,-0.0,-0.005207473805720072,6.482196557300313e-09,-5.597287078273894e-09,4.4126511056674644e-05,-7.996022759471089e-06,-9.245556611858774e-06,2.211814953412272e-09,-9.854406357590051e-08,2.8950883006473305e-06,-0.0003061293682549149,0.0,-0.0,-0.01041499468373021
4735,176608180840,-23.800546646118164,61.24238586425781,0.0016735458048060536,0.9999864410163584,0.0,-0.0,-0.005207473805720072,6.3302905140005805e-09,-3.0927424510274193e-10,4.213333158986643e-05,-6.812778792664176e-06,-8.985250133264344e-06,7.444803662437494e-10,-1.5190604329973212e-08,5.28801251675759e-07,-0.00019931794668082148,0.0,-0.0,-0.01041499468373021
4736,176618180839,-23.800546646118164,61.24238586425781,0.0016735458048060536,0.9999864410163584,0.0,-0.0,-0.005207473805720072,-8.633445958139419e-09,3.787534197385867e-08,3.870964064844884e-05,4.5409022277453914e-05,1.0856027984118555e-05,5.796883861819424e-09,-1.4963736703066388e-06,3.818461664195638e-06,-0.00034236907958984375,0.0,-0.0,-0.01041499468373021
4737,176628180839,-23.800546646118164,61.24238586425781,0.0016747283516451716,0.9999864410163584,0.0,-0.0,-0.005207473805720072,-8.891197111893234e-09,-5.812292158680066e-08,3.672599632409401e-05,-4.389634705148637e-05,1.2257381968083791e-05,-8.377467608511324e-09,-2.5775115375381574e-08,-9.59982571657747e-06,-0.00019836443243548274,0.0,-0.0,-0.01041499468373021
4738,176638180839,-23.800546646118164,61.24238586425781,0.0016747283516451716,0.9999864410163584,0.0,-0.0,-0.005207473805720072,6.7571508388653e-09,1.7820878994712075e-08,3.396034298930317e-05,-6.003424459777307e-06,-7.88339093560353e-06,4.0328842487724614e-09,1.5648348608010565e-06,7.594380349473795e-06,-0.00027656531892716885,0.0,-0.0,-0.01041499468373021
4739,176648180839,-23.800546646118164,61.24238586425781,0.0016747283516451716,0.9999864410163584,0.0,-0.0,-0.005207473805720072,-9.389661492775758e-09,4.058279401419895e-08,3.101348920608871e-05,4.6393619413720444e-05,1.2008556041109841e-05,4.85535833760764e-09,-1.6146811958606122e-06,2.2761914806324057e-06,-0.00029468536376953125,0.0,-0.0,-0.01041499468373021
4740,176658180839,-23.800546646118164,61.24238586425781,0.0016747283516451716,0.9999864410163584,0.0,-0.0,-0.005207473805720072,-9.322316252280416e-09,-5.614370124362722e-08,2.955436684715096e-05,-4.079238715348765e-05,1.29068830574397e-05,-8.588367350625958e-09,6.7345240495342296e-09,-9.67264986684313e-06,-0.00014591222861781716,0.0,-0.0,-0.01041499468373021
4741,176668180838,-23.800546646118164,61.24238586425781,0.0016747283516451716,0.9999864410163584,0.0,-0.0,-0.005207473805720072,0.0,-0.0,0.0,0.0,-0.0,-0.0,9.322316145699006e-07,5.614369911199901e-06,-0.0029554367065429688,0.0,-0.0,-0.01041499468373021
4742,176678180838,-23.800546646118164,61.24238586425781,0.0016757582779973745,0.9999864410163584,0.0,-0.0,-0.005207473805720072,4.4506764940166477e-10,-2.9860691697081165e-10,6.322860372165451e-06,-4.072351202921709e-07,-5.903547162233735e-07,-9.158500346995169e-11,4.4506766272434106e-08,-2.9860693473438005e-08,0.0006322860135696828,0.0,-0.0,-0.01041499468373021
4743,176688180838,-23.800546646118164,61.24238586425781,0.0016757582779973745,0.9999864410163584,0.0,-0.0,-0.005207473805720072,4.401179143354028e-10,2.962084189039871e-10,8.21113553683972e-06,8.245767446624086e-08,-6.213633128027141e-07,4.714152679330397e-11,-4.949735066261951e-10,5.948152903556547e-08,0.0001888275146484375,0.0,-0.0,-0.01041499468373021
4744,176698180838,-23.800546646118164,61.24238586425781,0.0016757582779973745,0.9999864410163584,0.0,-0.0,-0.005207473805720072,7.58742513262689e-10,-2.6018717735887265e-10,1.0051727258542087e-05,-3.288547247848328e-07,-1.0497841458345647e-06,-9.288154967368456e-11,3.186245933761711e-08,-5.563956051446439e-08,0.0001840591721702367,0.0,-0.0,-0.01041499468373021
4745,176708180837,-23.800546646118164,61.24238586425781,0.0016757582779973745,0.9999864410163584,0.0,-0.0,-0.005207473805720072,1.5644907591649826e-08,-3.719731722640063e-08,1.1358260962879285e-05,-5.102291106595658e-05,-2.07955436053453e-05,-5.601709318625581e-09,1.4886164763083798e-06,-3.693713097163709e-06,0.00013065336679574102,0.0,-0.0,-0.01041499468373021
4746,176718180837,-23.800546646118164,61.24238586425781,0.0016757582779973745,0.9999864410163584,0.0,-0.0,-0.005207473805720072,4.5293629957754433e-10,2.9417570601708576e-08,1.1940001968469005e-05,-6.513812991215673e-07,-1.6690800066498923e-06,7.846804983557831e-09,-1.519197212473955e-06,6.661488896497758e-06,5.8174100558971986e-05,0.0,-0.0,-0.01041499468373021
4747,176728180837,-23.800546646118164,61.24238586425781,0.0016757582779973745,0.9999864410163584,0.0,-0.0,-0.005207473805720072,-1.357961298964483e-08,4.185313429161397e-08,1.241683912667213e-05,5.0910271966131404e-05,1.7908912923303433e-05,3.97516242145457e-09,-1.4032549415787798e-06,1.2435564258339582e-06,4.76837158203125e-05,0.0,-0.0,-0.01041499468373021
4748,176738180837,-23.800546646118164,61.24238586425781,0.0016757582779973745,0.9999864410163584,0.0,-0.0,-0.005207473805720072,2.1485730972159445e-09,-2.8925473571916882e-08,1.1930465007026214e-05,3.514084880862356e-07,-1.971652409338276e-06,-8.480689039913614e-09,1.5728186326668947e-06,-7.077861027937615e-06,-4.863741196459159e-05,0.0,-0.0,-0.01041499468373021
4749,176748180837,-23.800546646118164,61.24238586425781,0.0016757582779973745,0.9999864410163584,0.0,-0.0,-0.005207473805720072,-1.3384103603186759e-08,3.346170984741548e-08,1.2178420547570568e-05,5.154095561010763e-05,1.7552867575432174e-05,7.203798446653309e-09,-1.5532677934970707e-06,6.238718924578279e-06,2.4795554054435343e-05,0.0,-0.0,-0.01041499468373021
4750,176758180836,-23.800546646118164,61.24238586425781,0.0016757582779973745,0.9999864410163584,0.0,-0.0,-0.005207473805720072,2.379597408008749e-09,-3.0024537522876926e-08,1.2941360182594508e-05,1.0507460501685273e-06,-2.3281968424271327e-06,-7.47045003635094e-09,1.5763700957904803e-06,-6.348624538077274e-06,7.629395986441523e-05,0.0,-0.0,-0.01041499468373021
4751,176768180836,-23.800546646118164,61.24238586425781,0.0016767883207648993,0.9999864410163584,0.0,-0.0,-0.005207473805720072,1.6498427513056413e-08,-4.234704675809553e-08,1.3608932022179943e-05,-5.1060527766821906e-05,-2.2063688447815366e-05,-3.938100068268113e-09,1.4118830904408242e-06,-1.2322509519435698e-06,6.675718759652227e-05,0.0,-0.0,-0.01041499468373021
4752,176778180836,-23.800546646118164,61.24238586425781,0.0016767883207648993,0.9999864410163584,0.0,-0.0,-0.005207473805720072,1.0245310155809761e-09,2.820429934047297e-08,1.3513565136236139e-05,-1.3499454780685483e-06,-2.5270419428125024e-06,8.42679437340621e-09,-1.5473896155526745e-06,7.055134574329713e-06,-9.536688594380394e-06,0.0,-0.0,-0.01041499468373021
4753,176788180836,-23.800546646118164,61.24238586425781,0.0016767883207648993,0.9999864410163584,0.0,-0.0,-0.005207473805720072,1.6824066584320008e-09,4.00096045183318e-09,1.2874603271484375e-05,-1.1746757309083478e-06,-2.3652792151551694e-06,-1.501675006565506e-09,6.578756739372693e-08,-2.4203338853112655e-06,-6.389618647517636e-05,0.0,-0.0,-0.01041499468373021
4754,176798180835,-23.800546646118164,61.24238586425781,0.0016767883207648993,0.9999864410163584,0.0,-0.0,-0.005207473805720072,1.756460754620548e-09,7.426282921940697e-10,1.2121200597903226e-05,-8.380420126741228e-07,-2.4759665393503383e-06,-4.701671829643317e-10,7.405409618854719e-09,-3.25833241276996e-07,-7.534027099609375e-05,0.0,-0.0,-0.01041499468373021
4755,176808180835,-23.800546646118164,61.24238586425781,0.0016767883207648993,0.9999864410163584,0.0,-0.0,-0.005207473805720072,-1.32437110167416e-08,3.728441200223642e-08,1.1672973414533772e-05,4.997825817554258e-05,1.737668389978353e-05,5.523353330261216e-09,-1.5000172197687789e-06,3.654178499346017e-06,-4.48227183369454e-05,0.0,-0.0,-0.01041499468373021
4756,176818180835,-23.800546646118164,61.24238586425781,0.0016767883207648993,0.9999864410163584,0.0,-0.0,-0.005207473805720072,2.4795598907445537e-09,-2.9540213830614448e-08,1.1739730325643905e-05,-4.889446927336394e-07,-2.4505993678758387e-06,-7.950221814212455e-09,1.5723271644674242e-06,-6.682462753815344e-06,6.675691111013293e-06,0.0,-0.0,-0.01041499468373021
4757,176828180835,-23.800546646118164,61.24238586425781,0.0016767883207648993,0.9999864410163584,0.0,-0.0,-0.005207473805720072,1.1354974738253532e-09,-6.990956080699107e-08,1.1396407899155747e-05,-9.025057079270482e-05,-1.6417154711234616e-06,-4.410693588141612e-09,-1.3440623547467112e-07,-4.0369345697399694e-06,-3.4332242648815736e-05,0.0,-0.0,-0.01041499468373021
4758,176838180835,-23.800546646118164,61.24238586425781,0.0016767883207648993,0.9999864410163584,0.0,-0.0,-0.005207473805720072,-1.2488982292779838e-08,8.761689684888552e-08,1.1377333976270165e-05,4.79508307762444e-05,1.7016158381011337e-05,1.6275155445555356e-08,-1.3624479606733075e-06,1.5752646504552104e-05,-1.907392288558185e-06,0.0,-0.0,-0.01041499468373021
4759,176848180834,-23.800546646118164,61.24238586425781,0.0016767883207648993,0.9999864410163584,0.0,-0.0,-0.005207473805720072,-1.2084989009508718e-08,1.5103982065056698e-08,1.009941115626134e-05,4.892753349849954e-05,1.6954840248217806e-05,-5.194531027541416e-09,4.0399328327112016e-08,-7.251291663123993e-06,-0.00012779228563886136,0.0,-0.0,-0.01041499468373021
4760,176858180834,-23.800546646118164,61.24238586425781,0.0016778564313426614,0.9999864410163584,0.0,-0.0,-0.005207473805720072,1.767644697281412e-08,-7.015695757672802e-08,1.0805129932123236e-05,-5.2680494263768196e-05,-2.2615959096583538e-05,-1.2783419656159367e-08,2.976143605337711e-06,-8.526093552063685e-06,7.057187758618966e-05,0.0,-0.0,-0.01041499468373021
4761,176868180834,-23.800546646118164,61.24238586425781,0.0016778564313426614,0.9999864410163584,0.0,-0.0,-0.005207473805720072,1.6886678722016768e-09,2.4527256670126008e-08,9.765624781721272e-06,-2.581838316473295e-06,-3.461565711404546e-06,9.858498017933925e-09,-1.5987779988790862e-06,9.468421012570616e-06,-0.00010395051504019648,0.0,-0.0,-0.01041499468373021
4762,176878180834,-23.800546646118164,61.24238586425781,0.0016778564313426614,0.9999864410163584,0.0,-0.0,-0.005207473805720072,2.8465971801949763e-09,3.1603826222692533e-09,9.679793947725557e-06,-2.7726530333893606e-06,-3.971455953433178e-06,-1.1604022187583496e-09,1.1579292902297311e-07,-2.136687498932588e-06,-8.583083399571478e-06,0.0,-0.0,-0.01041499468373021
4763,176888180833,-23.800546646118164,61.24238586425781,0.0016778564313426614,0.9999864410163584,0.0,-0.0,-0.005207473805720072,2.9126541178925436e-09,4.5535925030648627e-10,9.489059266343247e-06,-2.562451982157654e-06,-4.108146640646737e-06,-3.8212324970920974e-10,6.605693769756726e-09,-2.7050234052694577e-07,-1.9073468138230965e-05,0.0,-0.0,-0.01041499468373021
4764,176898180833,-23.800546646118164,61.24238586425781,0.0016778564313426614,0.9999864410163584,0.0,-0.0,-0.005207473805720072,-1.153979667378735e-08,3.7045293055371076e-08,8.19206252344884e-06,4.809560050489381e-05,1.5017199984868057e-05,5.458578922201696e-09,-1.445245061404421e-06,3.658993364297203e-06,-0.00012969967792741954,0.0,-0.0,-0.01041499468373021
4765,176908180833,-23.800546646118164,61.24238586425781,0.0016778564313426614,0.9999864410163584,0.0,-0.0,-0.005207473805720072,3.1896409957710148e-09,-9.402962319882135e-08,8.153915587172378e-06,-9.024838800542057e-05,-3.475592393442639e-06,-1.3843842516791938e-08,1.4729437225469155e-06,-1.3107491213304456e-05,-3.814693627646193e-06,0.0,-0.0,-0.01041499468373021
4766,176918180833,-23.800546646118164,61.24238586425781,0.0016778564313426614,0.9999864410163584,0.0,-0.0,-0.005207473805720072,-1.0979309905678747e-08,8.363484482742933e-08,7.44819635656313e-06,4.713613452622667e-05,1.4863815522403456e-05,1.7276814645583727e-08,-1.4168950883686193e-06,1.7766447854228318e-05,-7.057192124193534e-05,0.0,-0.0,-0.01041499468373021
4767,176928180832,-23.800546646118164,61.24238586425781,0.0016778564313426614,0.9999864410163584,0.0,-0.0,-0.005207473805720072,1.9095031333904444e-08,-5.962361626643542e-08,7.591247594973538e-06,-5.305915328790434e-05,-2.4501816369593143e-05,-1.596770182743512e-08,3.007433861057507e-06,-1.4325845768325962e-05,1.4305123841040768e-05,0.0,-0.0,-0.01041499468373021
4768,176938180832,-23.800546646118164,61.24238586425781,0.0016778564313426614,0.9999864410163584,0.0,-0.0,-0.005207473805720072,-1.1591636983609988e-08,6.27692031685001e-08,6.4277646742993966e-06,4.7261932195397094e-05,1.4024225492903497e-05,1.4232039546868691e-08,-3.0686667287227465e-06,1.2239282114023808e-05,-0.00011634829570539296,0.0,-0.0,-0.01041499468373021
4769,176948180832,-23.800546646118164,61.24238586425781,0.0016778564313426614,0.9999864410163584,0.0,-0.0,-0.005207473805720072,1.947329941742737e-08,-6.273698005543338e-08,6.4373016357421875e-06,-5.3196716180536896e-05,-2.514851075829938e-05,-1.4755388910714373e-08,3.1064935228641843e-06,-1.2550617611850612e-05,9.536961442790926e-07,0.0,-0.0,-0.01041499468373021
4770,176958180832,-23.800546646118164,61.24238586425781,0.0016778564313426614,0.9999864410163584,0.0,-0.0,-0.005207473805720072,-1.1143053590956242e-08,6.248897932437103e-08,5.140304438100429e-06,4.734971298603341e-05,1.3375815797189716e-05,1.4611908127903916e-08,-3.0616351978096645e-06,1.252259698958369e-05,-0.00012969972158316523,0.0,-0.0,-0.01041499468373021
4771,176968180832,-23.800546646118164,61.24238586425781,0.0016778564313426614,0.9999864410163584,0.0,-0.0,-0.005207473805720072,5.122993584905089e-09,-2.549952959896018e-08,5.455016889754916e-06,-2.2292799712886335e-06,-6.187619419506518e-06,-9.082617324907005e-09,1.6266046714008553e-06,-8.798851013125386e-06,3.1471245165448636e-05,0.0,-0.0,-0.01041499468373021
4772,176978180831,-23.800546646118164,61.24238586425781,0.0016778564313426614,0.9999864410163584,0.0,-0.0,-0.005207473805720072,4.459545621671168e-09,-3.497016232145711e-09,6.151199158921372e-06,-1.9565425191103714e-06,-6.353035587380873e-06,1.2288835504747908e-09,-6.634479632339207e-08,2.2002514015184715e-06,6.961822509765625e-05,0.0,-0.0,-0.01041499468373021
4773,176988180831,-23.800546646118164,61.24238586425781,0.0016778564313426614,0.9999864410163584,0.0,-0.0,-0.005207473805720072,-1.0016997897821511e-08,3.6574665074340373e-08,4.301070930523565e-06,4.879670814261772e-05,1.2825534213334322e-05,5.95375482248528e-09,-1.4476543128694175e-06,4.007168172392994e-06,-0.0001850128173828125,0.0,-0.0,-0.01041499468373021
4774,176998180831,-23.800546646118164,61.24238586425781,0.0016778564313426614,0.9999864410163584,0.0,-0.0,-0.005207473805720072,5.501076483227507e-09,-2.8962221065853555e-08,4.472732598514995e-06,-6.412106472453161e-07,-6.7672958721232135e-06,-7.755980746537716e-09,1.5518073723796988e-06,-6.553688763233367e-06,1.7166166799142957e-05,0.0,-0.0,-0.01041499468373021
4775,177008180831,-23.800546646118164,61.24238586425781,0.0016788863576948643,0.9999864410163584,0.0,-0.0,-0.005207473805720072,4.273823517308983e-09,-6.877625224888106e-08,4.301070930523565e-06,-8.892254118109122e-05,-6.105350621510297e-06,-4.355622529317316e-09,-1.2272529659185238e-07,-3.981403096986469e-06,-1.7166166799142957e-05,0.0,-0.0,-0.01041499468373021
4776,177018180830,-23.800546646118164,61.24238586425781,0.0016788863576948643,0.9999864410163584,0.0,-0.0,-0.005207473805720072,5.620968579478358e-09,5.0584358035621335e-08,4.110336249141255e-06,-1.5252740013238508e-06,-7.300273409782676e-06,1.056165288559896e-08,1.34714511546008e-07,1.1936061127926223e-05,-1.9073468138230965e-05,0.0,-0.0,-0.01041499468373021
4777,177028180830,-23.800546646118164,61.24238586425781,0.0016788863576948643,0.9999864410163584,0.0,-0.0,-0.005207473805720072,-9.15561315650848e-09,4.427667121831291e-08,3.566741952454322e-06,4.939552309224382e-05,1.1741350135707762e-05,2.6008952769274174e-09,-1.4776582020203932e-06,-6.307686817308422e-07,-5.4359428759198636e-05,0.0,-0.0,-0.01041499468373021
4778,177038180830,-23.800546646118164,61.24238586425781,0.0016788863576948643,0.9999864410163584,0.0,-0.0,-0.005207473805720072,6.169151856028066e-09,-2.805760246360478e-08,3.604888888730784e-06,-3.0469763601104205e-07,-7.714573257544544e-06,-8.709958088104486e-09,1.532476517240866e-06,-7.233427368191769e-06,3.814693627646193e-06,0.0,-0.0,-0.01041499468373021
4779,177048180830,-23.800546646118164,61.24238586425781,0.0016788863576948643,0.9999864410163584,0.0,-0.0,-0.005207473805720072,-1.0145620343848805e-08,-3.06502698776967e-08,3.7288664316292852e-06,-3.673188257380389e-05,1.2926528142997995e-05,1.1943180888707161e-09,-1.631477175578766e-06,-2.5926675562004675e-07,1.2397754289850127e-05,0.0,-0.0,-0.01041499468373021
4780,177058180830,-23.800546646118164,61.24238586425781,0.0016788863576948643,0.9999864410163584,0.0,-0.0,-0.005207473805720072,6.582761002960069e-09,2.1570732755549216e-08,2.9945372261863668e-06,6.150058879939024e-07,-7.640320291102398e-06,2.6331883340446893e-09,1.6728382661312935e-06,5.2221002988517284e-06,-7.343292236328125e-05,0.0,-0.0,-0.01041499468373021
4781,177068180829,-23.800546646118164,61.24238586425781,0.0016788863576948643,0.9999864410163584,0.0,-0.0,-0.005207473805720072,-9.058764405267539e-09,4.0167478232433496e-08,2.317428425158141e-06,5.134427919983864e-05,1.1536531928868499e-05,4.2490415630425105e-09,-1.5641525124010514e-06,1.8596745121612912e-06,-6.771087646484375e-05,0.0,-0.0,-0.01041499468373021
4782,177078180829,-23.800546646118164,61.24238586425781,0.0016788863576948643,0.9999864410163584,0.0,-0.0,-0.005207473805720072,6.313153999570886e-09,-2.8435424681561017e-08,2.2220610844669864e-06,1.8020413108388311e-06,-7.94761763245333e-06,-8.197407197485518e-09,1.5371919062090456e-06,-6.860290341137443e-06,-9.536734069115482e-06,0.0,-0.0,-0.01041499468373021
4783,177088180829,-23.800546646118164,61.24238586425781,0.0016788863576948643,0.9999864410163584,0.0,-0.0,-0.005207473805720072,0.0,-0.0,0.0,0.0,-0.0,-0.0,-6.313154017334455e-07,2.8435424610506743e-06,-0.00022220611572265625,0.0,-0.0,-0.01041499468373021
4784,177098180829,-23.800546646118164,61.24238586425781,0.0016788863576948643,0.9999864410163584,0.0,-0.0,-0.005207473805720072,-1.0237913294908196e-10,-9.336961065420368e-11,2.8610227786884934e-07,-1.275863610317174e-07,1.359592118888031e-07,5.859564569665743e-12,-1.0237913627975104e-08,-9.336961426242851e-09,2.8610227673198096e-05,0.0,-0.0,-0.01041499468373021
4785,177108180828,-23.800546646118164,61.24238586425781,0.0016788863576948643,0.9999864410163584,0.0,-0.0,-0.005207473805720072,-1.9719961774633532e-10,-1.1147042316972389e-10,5.722045557376987e-07,-2.5573601192263595e-07,2.7193499363420415e-07,1.2441535648943791e-11,-9.482048923814546e-09,-1.8100811960408691e-09,2.8610227673198096e-05,0.0,-0.0,-0.01041499468373021
4786,177118180828,-23.800546646118164,61.24238586425781,0.0016788863576948643,0.9999864410163584,0.0,-0.0,-0.005207473805720072,-2.9169699988784714e-10,-1.1870171512384786e-10,8.583068620282575e-07,-3.839694784346648e-07,4.079112443378108e-07,1.4087802972795327e-11,-9.449737881084275e-09,-7.231292231679731e-10,2.8610231311176904e-05,0.0,-0.0,-0.01041499468373021
4787,177128180828,-23.800546646118164,61.24238586425781,0.0016788863576948643,0.9999864410163584,0.0,-0.0,-0.005207473805720072,-3.8616843056615835e-10,-1.2436031371354517e-10,1.1444091114753974e-06,-5.122114430378133e-07,5.438881203190249e-07,1.4398300260398678e-11,-9.44714351192033e-09,-5.658598589697306e-10,2.8610225854208693e-05,0.0,-0.0,-0.01041499468373021
4788,177138180828,-23.800546646118164,61.24238586425781,0.0016788863576948643,0.9999864410163584,0.0,-0.0,-0.005207473805720072,-4.80636364041942e-10,-1.2979506358590243e-10,1.430511474609375e-06,-6.404563350770331e-07,6.79864797348273e-07,1.4450040122793162e-11,-9.446793569622969e-09,-5.434749872357258e-10,2.8610236768145114e-05,0.0,-0.0,-0.01041499468373021
4789,177148180828,-23.800546646118164,61.24238586425781,0.0016788863576948643,0.9999864410163584,0.0,-0.0,-0.005207473805720072,-5.751038534285158e-10,-1.3519556307795e-10,1.716613724056515e-06,-7.686998060307815e-07,8.158414743775211e-07,1.4456497630932486e-11,-9.446749160701984e-09,-5.400499492047572e-10,2.8610225854208693e-05,0.0,-0.0,-0.01041499468373021
4790,177158180827,-23.800546646118164,61.24238586425781,0.0016788863576948643,0.9999864410163584,0.0,-0.0,-0.005207473805720072,-6.695713428150896e-10,-1.4059206576710892e-10,2.002715973503655e-06,-8.969430496108544e-07,9.518182650936069e-07,1.4457666834555294e-11,-9.446749160701984e-09,-5.396502689158922e-10,2.8610225854208693e-05,0.0,-0.0,-0.01041499468373021
4791,177168180827,-23.800546646118164,61.24238586425781,0.0016788863576948643,0.9999864410163584,0.0,-0.0,-0.005207473805720072,1.4689009120161245e-08,2.647797359145443e-08,1.115798909268051e-06,3.5341294278623536e-05,-1.9446151782176457e-05,3.0580268872704153e-10,1.5358580185420578e-06,2.661856569829979e-06,-8.869170414982364e-05,0.0,-0.0,-0.01041499468373021
4792,177178180827,-23.800546646118164,61.24238586425781,0.0016788863576948643,0.9999864410163584,0.0,-0.0,-0.005207473805720072,-1.9549144525399242e-09,-2.3076644595221296e-08,1.058578504853358e-06,-3.132149458906497e-06,1.048942749548587e-06,-2.241276275682935e-09,-1.664392357270117e-06,-4.9554619181435555e-06,-5.722040441469289e-06,0.0,-0.0,-0.01041499468373021
4793,177188180827,-23.800546646118164,61.24238586425781,0.0016788863576948643,0.9999864410163584,0.0,-0.0,-0.005207473805720072,-9.160675551456166e-10,-4.636389050460821e-09,1.306533818024036e-06,-4.879099378740648e-06,1.226964400302677e-06,1.3523521191771692e-09,1.0388468751898472e-07,1.8440255189489108e-06,2.47955322265625e-05,0.0,-0.0,-0.01041499468373021
4794,177198180826,-23.800546646118164,61.24238586425781,0.0016788863576948643,0.9999864410163584,0.0,-0.0,-0.005207473805720072,-9.676482948250964e-10,-2.04079020349468e-09,1.554489131194714e-06,-6.50728497930686e-06,1.402229827363044e-06,3.8940750624050224e-10,-5.158073967947985e-09,2.5955989713111194e-07,2.47955322265625e-05,0.0,-0.0,-0.01041499468373021
4795,177208180826,-23.800546646118164,61.24238586425781,0.0016788863576948643,0.9999864410163584,0.0,-0.0,-0.005207473805720072,-1.313443021011551e-09,-1.2027501217204417e-09,1.8119811784345075e-06,-7.394597560050897e-06,1.895203808999213e-06,1.6784344747389213e-10,-3.457947173046705e-08,8.38040108419591e-08,2.5749204723979346e-05,0.0,-0.0,-0.01041499468373021
4796,177218180826,-23.800546646118164,61.24238586425781,0.0016788863576948643,0.9999864410163584,0.0,-0.0,-0.005207473805720072,-1.6518182377467383e-09,-1.1161277457816254e-09,2.069473111987463e-06,-8.276281732833013e-06,2.3881441393314162e-06,7.358202241958267e-11,-3.383752300578635e-08,8.662237149792418e-09,2.5749193810042925e-05,0.0,-0.0,-0.01041499468373021
4797,177228180826,-23.800546646118164,61.24238586425781,0.0016788863576948643,0.9999864410163584,0.0,-0.0,-0.005207473805720072,-1.1136951361123693e-09,6.335570645887856e-08,1.5640258652638295e-06,7.889873086242005e-05,1.6530102584511042e-06,5.980770101388089e-09,5.3812311051615325e-08,6.44718329567695e-06,-5.054472421761602e-05,0.0,-0.0,-0.01041499468373021
4798,177238180826,-23.800546646118164,61.24238586425781,0.0016788863576948643,0.9999864410163584,0.0,-0.0,-0.005207473805720072,-1.6330223839844393e-09,1.1417646383904412e-08,1.7738342421580455e-06,7.78063913458027e-05,1.7150783833130845e-06,-4.186299751296474e-09,-5.193272301085017e-08,-5.193805918679573e-06,2.0980838598916307e-05,0.0,-0.0,-0.01041499468373021
4799,177248180825,-23.800546646118164,61.24238586425781,0.0016788863576948643,0.9999864410163584,0.0,-0.0,-0.005207473805720072,-1.7378706473891725e-08,-3.322768904467921e-08,2.4127959932229714e-06,2.5726518288138323e-05,2.2538453777087852e-05,-2.3689425976414213e-09,-1.574568386786268e-06,-4.464533503778512e-06,6.389617192326114e-05,0.0,-0.0,-0.01041499468373021
4800,177258180825,-23.800546646118164,61.24238586425781,0.0016788863576948643,0.9999864410163584,0.0,-0.0,-0.005207473805720072,1.4235570056086999e-08,-4.996304703297483e-09,1.7642973944020923e-06,2.3617740225745365e-05,-1.7676427887636237e-05,-2.10882333817608e-09,3.1614276849722955e-06,2.8231384021637496e-06,-6.484986079158261e-05,0.0,-0.0,-0.01041499468373021
4801,177268180825,-23.800546646118164,61.24238586425781,0.0016788863576948643,0.9999864410163584,0.0,-0.0,-0.005207473805720072,1.2201727628280423e-08,-2.0286299307059608e-09,1.964569037227193e-06,2.057207893813029e-05,-1.7573942386661656e-05,3.5305267043206356e-10,-2.0338424633337127e-07,2.967674674891896e-07,2.0027164282510057e-05,0.0,-0.0,-0.01041499468373021
4802,177278180825,-23.800546646118164,61.24238586425781,0.0016788863576948643,0.9999864410163584,0.0,-0.0,-0.005207473805720072,1.153523498942377e-08,-6.522562046029634e-08,1.3923644246460753e-06,-6.914586992934346e-05,-1.6656229490763508e-05,-5.798857394267998e-09,-6.664926388566528e-08,-6.319699423329439e-06,-5.722046262235381e-05,0.0,-0.0,-0.01041499468373021
4803,177288180824,-23.800546646118164,61.24238586425781,0.0016788863576948643,0.9999864410163584,0.0,-0.0,-0.005207473805720072,1.1982144165756381e-08,-1.3746793925406564e-08,1.5449523971255985e-06,-7.132120663300157e-05,-1.658376640989445e-05,4.1720040755421905e-09,4.469091763326105e-08,5.147882802702952e-06,1.5258796338457614e-05,0.0,-0.0,-0.01041499468373021
4804,177298180824,-23.800546646118164,61.24238586425781,0.0016788863576948643,0.9999864410163584,0.0,-0.0,-0.005207473805720072,-2.802230447684906e-09,3.101738954569555e-08,2.117157009706716e-06,-2.210258571722079e-05,3.1471397505811183e-06,6.739106606090672e-09,-1.4784374116061372e-06,4.476418325793929e-06,5.722046262235381e-05,0.0,-0.0,-0.01041499468373021
4805,177308180824,-23.800546646118164,61.24238586425781,0.0016788863576948643,0.9999864410163584,0.0,-0.0,-0.005207473805720072,-2.3771227208868595e-09,2.929434694820543e-09,7.820129326319147e-07,-2.277226303704083e-05,3.6125911719864234e-06,-2.0062833616663056e-09,4.251077356798305e-08,-2.808795443343115e-06,-0.00013351441884879023,0.0,-0.0,-0.01041499468373021
4806,177318180824,-23.800546646118164,61.24238586425781,0.0016788863576948643,0.9999864410163584,0.0,-0.0,-0.005207473805720072,-2.722616132544431e-09,-1.2009981897875832e-09,8.964538551481382e-07,-2.3683003746555187e-05,4.0787381294649094e-06,-5.44097933374843e-10,-3.454934116575714e-08,-4.1304329556624e-07,1.1444091796875e-05,0.0,-0.0,-0.01041499468373021
4807,177328180824,-23.800546646118164,61.24238586425781,0.0016788863576948643,0.9999864410163584,0.0,-0.0,-0.005207473805720072,-3.0505655779222707e-09,-1.8339277874090953e-09,1.0108947208209429e-06,-2.4619948817417026e-05,4.545127012534067e-06,-6.861231027777137e-11,-3.279494364960556e-08,-6.329295842988358e-08,1.144408633990679e-05,0.0,-0.0,-0.01041499468373021
4808,177338180823,-23.800546646118164,61.24238586425781,0.0016788863576948643,0.9999864410163584,0.0,-0.0,-0.005207473805720072,-3.372379930866032e-09,-1.9622345970304877e-09,1.1253356433371664e-06,-2.556067192927003e-05,5.011556822864804e-06,2.65379003494548e-11,-3.2181436182554535e-08,-1.283068051805003e-08,1.1444091796875e-05,0.0,-0.0,-0.01041499468373021
4809,177348180823,-23.800546646118164,61.24238586425781,0.0016788863576948643,0.9999864410163584,0.0,-0.0,-0.005207473805720072,-3.6931975255782845e-09,-2.0177279846933516e-09,1.23977656585339e-06,-2.6501935280975886e-05,5.477992544911103e-06,4.3061401666655286e-11,-3.208175769486843e-08,-5.5493387662863825e-09,1.1444091796875e-05,0.0,-0.0,-0.01041499468373021
4810,177358180823,-23.800546646118164,61.24238586425781,0.0016788863576948643,0.9999864410163584,0.0,-0.0,-0.005207473805720072,1.1507723662873559e-08,2.5551251781052997e-08,1.6689300537109375e-06,1.0274957276124042e-05,-1.4681455468235072e-05,4.204276093933146e-10,1.5200921552604996e-06,2.7568980840442237e-06,4.291534787626006e-05,0.0,-0.0,-0.01041499468373021
4811,177368180823,-23.800546646118164,61.24238586425781,0.0016788863576948643,0.9999864410163584,0.0,-0.0,-0.005207473805720072,-5.263556257517621e-09,-2.3705711171828625e-08,1.4781951449549524e-06,-2.74680060101673e-05,5.996614618197782e-06,-2.1839052788408253e-09,-1.6771278978922055e-06,-4.925695975543931e-06,-1.9073489966103807e-05,0.0,-0.0,-0.01041499468373021
4812,177378180822,-23.800546646118164,61.24238586425781,0.0016788863576948643,0.9999864410163584,0.0,-0.0,-0.005207473805720072,1.0861515242766018e-08,2.2727030923874736e-08,1.9073486328125e-06,9.649637831898872e-06,-1.3866888366464991e-05,1.8303011328768548e-09,1.612507048776024e-06,4.643274223781191e-06,4.291534787626006e-05,0.0,-0.0,-0.01041499468373021
4813,177388180822,-23.800546646118164,61.24238586425781,0.0016788863576948643,0.9999864410163584,0.0,-0.0,-0.005207473805720072,-6.058190837876509e-09,-2.3784446412378202e-08,1.716613724056515e-06,-2.763176780717913e-05,7.104382802936016e-06,-1.7607265645480652e-09,-1.6919706240514643e-06,-4.651147719414439e-06,-1.9073489966103807e-05,0.0,-0.0,-0.01041499468373021
4814,177398180822,-23.800546646118164,61.24238586425781,0.0016788863576948643,0.9999864410163584,0.0,-0.0,-0.005207473805720072,1.0085249080304948e-08,2.2715148872975988e-08,2.1457672119140625e-06,9.485373084316961e-06,-1.2759086530422792e-05,1.8775350163480198e-09,1.6143440006999299e-06,4.649959464586573e-06,4.291534787626006e-05,0.0,-0.0,-0.01041499468373021
4815,177408180822,-23.800546646118164,61.24238586425781,0.0016788863576948643,0.9999864410163584,0.0,-0.0,-0.005207473805720072,-6.239361916016151e-09,4.0921470656485326e-08,1.182556161438697e-06,6.055237099644728e-05,7.359531537076691e-06,4.233081885018919e-09,-1.6324611351592466e-06,1.8206321783509338e-06,-9.632110595703125e-05,0.0,-0.0,-0.01041499468373021
4816,177418180822,-23.800546646118164,61.24238586425781,0.0016788863576948643,0.9999864410163584,0.0,-0.0,-0.005207473805720072,-6.060543622510295e-09,8.222738934193785e-09,1.2493132999225054e-06,6.0401380324037746e-05,8.063524546741974e-06,-2.659496178836207e-09,1.7881829350585576e-08,-3.2698733321012696e-06,6.675713848380838e-06,0.0,-0.0,-0.01041499468373021
4817,177428180821,-23.800546646118164,61.24238586425781,0.0016788863576948643,0.9999864410163584,0.0,-0.0,-0.005207473805720072,-6.345768799320695e-09,3.008314042318716e-09,1.325607286162267e-06,5.9378482546890154e-05,8.449628694506828e-06,-7.203200813599153e-10,-2.852251768103997e-08,-5.214424732002954e-07,7.629398169228807e-06,0.0,-0.0,-0.01041499468373021
4818,177438180821,-23.800546646118164,61.24238586425781,0.0016788863576948643,0.9999864410163584,0.0,-0.0,-0.005207473805720072,-6.3778400338776464e-09,1.7730104051594253e-09,1.3923644246460753e-06,5.772135409642942e-05,8.517089554516133e-06,-1.8448895189315806e-10,-3.207123455695182e-09,-1.23530369933178e-07,6.675713848380838e-06,0.0,-0.0,-0.01041499468373021
4819,177448180821,-23.800546646118164,61.24238586425781,0.0016788863576948643,0.9999864410163584,0.0,-0.0,-0.005207473805720072,-2.1989055909443778e-08,-3.556273853178027e-08,1.8882750509874313e-06,5.403790510172257e-06,2.9288583391462453e-05,-1.292516316198089e-09,-1.5611215076205553e-06,-3.7335748857003637e-06,4.9591064453125e-05,0.0,-0.0,-0.01041499468373021
4820,177458180821,-23.800546646118164,61.24238586425781,0.0016788863576948643,0.9999864410163584,0.0,-0.0,-0.005207473805720072,-5.394133584246674e-09,3.04902094683257e-08,1.5449523971255985e-06,5.3298354032449424e-05,8.986965440271888e-06,3.695396877390067e-09,1.6594922271906398e-06,6.605294856854016e-06,-3.433226447668858e-05,0.0,-0.0,-0.01041499468373021
4821,177468180820,-23.800546646118164,61.24238586425781,0.0016788863576948643,0.9999864410163584,0.0,-0.0,-0.005207473805720072,8.54372927960867e-09,-2.279123201276434e-08,1.9359588350198464e-06,1.3214203136158176e-05,-1.1062785233661998e-05,-6.61175514338197e-09,1.3937861922386219e-06,-5.328143743099645e-06,3.910064333467744e-05,0.0,-0.0,-0.01041499468373021
4822,177478180820,-23.800546646118164,61.24238586425781,0.0016788863576948643,0.9999864410163584,0.0,-0.0,-0.005207473805720072,7.547203750846165e-09,-1.420716166933289e-08,1.2683867680607364e-06,-2.508480747565045e-06,-1.0909529919445049e-05,2.704850787793589e-10,-9.965255287625041e-08,8.584070201322902e-07,-6.675720942439511e-05,0.0,-0.0,-0.01041499468373021
4823,177488180820,-23.800546646118164,61.24238586425781,0.0016788863576948643,0.9999864410163584,0.0,-0.0,-0.005207473805720072,7.563694559564738e-09,-4.291154986901802e-09,1.325607286162267e-06,-5.4213846851780545e-06,-1.0804760677274317e-05,9.558178692969932e-10,1.6490808718572225e-09,9.91600700217532e-07,5.7220518101530615e-06,0.0,-0.0,-0.01041499468373021
4824,177498180820,-23.800546646118164,61.24238586425781,0.0016788863576948643,0.9999864410163584,0.0,-0.0,-0.005207473805720072,7.28764559809747e-09,-2.4940975951182054e-09,1.3828276905769599e-06,-7.607400220877025e-06,-1.0382163964095525e-05,3.0594676792006226e-10,-2.7604896146726787e-08,1.7970573651382438e-07,5.722040441469289e-06,0.0,-0.0,-0.01041499468373021
4825,177508180820,-23.800546646118164,61.24238586425781,0.0016788863576948643,0.9999864410163584,0.0,-0.0,-0.005207473805720072,0.0,-0.0,0.0,0.0,-0.0,-0.0,-7.287645757969585e-07,2.494097657290695e-07,-0.00013828277587890625,0.0,-0.0,-0.01041499468373021
4826,177518180819,-23.800546646118164,61.24238586425781,0.0016788863576948643,0.9999864410163584,0.0,-0.0,-0.005207473805720072,-3.170566309496081e-10,-1.5823077292864696e-09,4.768371297814156e-08,-2.1606992959277704e-06,4.223240068768064e-07,-1.0320665849716804e-10,-3.170566387211693e-08,-1.5823077603727143e-07,4.768371127283899e-06,0.0,-0.0,-0.01041499468373021
4827,177528180819,-23.800546646118164,61.24238586425781,0.0016788863576948643,0.9999864410163584,0.0,-0.0,-0.005207473805720072,-6.01834526658962e-10,-1.8997710071744223e-09,1.0490417423625331e-07,-4.330874162405962e-06,8.447779578091286e-07,2.7020426911564255e-13,-2.8477789015823873e-08,-3.174632823288448e-08,5.7220458984375e-06,0.0,-0.0,-0.01041499468373021
4828,177538180819,-23.800546646118164,61.24238586425781,0.0016788863576948643,0.9999864410163584,0.0,-0.0,-0.005207473805720072,-8.837362508451463e-10,-2.0346968554463274e-09,1.6212463549436507e-07,-6.50241690891562e-06,1.2672480806941167e-06,2.756437439410675e-11,-2.819017197452922e-08,-1.3492584827190512e-08,5.7220458984375e-06,0.0,-0.0,-0.01041499468373021
4829,177548180819,-23.800546646118164,61.24238586425781,0.0016788863576948643,0.9999864410163584,0.0,-0.0,-0.005207473805720072,-1.4055715480409958e-09,-1.6579243533598742e-09,2.0980834847250662e-07,-8.01173155196011e-06,2.0081545244465815e-06,1.1263870391964304e-10,-5.218353038571877e-08,3.767724976455611e-08,4.768371127283899e-06,0.0,-0.0,-0.01041499468373021
4830,177558180818,-23.800546646118164,61.24238586425781,0.0016788863576948643,0.9999864410163584,0.0,-0.0,-0.005207473805720072,-1.914445046935498e-09,-1.6627803578472822e-09,2.5749204723979346e-07,-9.518186743662227e-06,2.749058694462292e-06,8.368836873495766e-11,-5.0887351221717836e-08,-4.856004487407972e-10,4.7683697630418465e-06,0.0,-0.0,-0.01041499468373021
4831,177568180818,-23.800546646118164,61.24238586425781,0.0016788863576948643,0.9999864410163584,0.0,-0.0,-0.005207473805720072,-2.4235755624602007e-09,-1.7226804427394882e-09,3.0517577442878974e-07,-1.102423539123265e-05,3.489957634883467e-06,7.557523357126783e-11,-5.091305155247028e-08,-5.9900084892205996e-09,4.768372491525952e-06,0.0,-0.0,-0.01041499468373021
4832,177578180818,-23.800546646118164,61.24238586425781,0.0016788863576948643,0.9999864410163584,0.0,-0.0,-0.005207473805720072,-2.6842879030652966e-09,-1.198204535590719e-09,3.433227391269611e-07,-1.1721263945219107e-05,3.9004694372124504e-06,9.407429696350889e-11,-2.6071234060509596e-08,5.2447589382609294e-08,3.8146963561302982e-06,0.0,-0.0,-0.01041499468373021
4833,177588180818,-23.800546646118164,61.24238586425781,0.0016788863576948643,0.9999864410163584,0.0,-0.0,-0.005207473805720072,-2.718039349147716e-09,-6.46827646999526e-10,3.8146970382513246e-07,-1.1728389836207498e-05,3.9815249692765065e-06,6.6116674635186e-11,-3.3751446082419534e-09,5.513768996934232e-08,3.8146963561302982e-06,0.0,-0.0,-0.01041499468373021
4834,177598180818,-23.800546646118164,61.24238586425781,0.0016788863576948643,0.9999864410163584,0.0,-0.0,-0.005207473805720072,-2.773299145886199e-09,-5.668944758063788e-10,4.1961669694501325e-07,-1.1731983249774203e-05,4.062515472469386e-06,2.2082792192068545e-11,-5.525979673848269e-09,7.993317119314725e-09,3.8146990846144035e-06,0.0,-0.0,-0.01041499468373021
4835,177608180817,-23.800521850585938,61.24238586425781,0.0016799544682726264,0.9999864512798754,1.7243166072570816e-07,8.335786815263419e-07,-0.005205502469192978,0.002727947197854519,4.562496906146407e-05,8.48770127959142e-07,-0.0007063727825880051,-0.008477011695504189,0.022905167192220688,0.2727949917316437,0.004562553483992815,4.291534423828125e-05,3.361802572253633e-07,1.6689299620762925e-06,-0.010411051956960132
4836,177618180817,-23.797775268554688,61.24235153198242,0.0016562652308493853,0.9999864552419698,-2.3807473417868185e-08,-3.457103689931524e-05,-0.0052046265420857005,0.2716694176197052,-0.0028240338433533907,-8.106231348392612e-07,0.00434557581320405,0.40424641966819763,0.010032623074948788,26.894145965576172,-0.28696587681770325,-0.0001659393310546875,3.122443713107497e-07,-6.914138515907603e-05,-0.010409300096305564
4837,177628180817,-23.792428970336914,61.2422981262207,0.0016178512014448643,0.9999864539251725,-3.358148279678135e-07,-9.173104113954923e-05,-0.0052041859557701966,0.5299671292304993,-0.005528494715690613,-7.438659395120339e-07,0.0069814203307032585,0.6546800136566162,0.005059140734374523,25.829771041870117,-0.2704460918903351,6.675719305349048e-06,2.831502387884284e-07,-0.00018346309340281521,-0.010408418964491776
4838,177638180817,-23.784643173217773,61.24221420288086,0.001569785992614925,0.9999864461683027,-7.200473883492045e-07,-0.00016313637218508663,-0.005203927910136838,0.7725940346717834,-0.008056837134063244,-3.9100646631595737e-07,0.008672881871461868,0.8193056583404541,0.0029577421955764294,24.262691497802734,-0.2528342306613922,3.528594606905244e-05,2.57824596572188e-07,-0.0003262758220627087,-0.010407902977030573
4839,177648180816,-23.774723052978516,61.24211120605469,0.001517448341473937,0.999986431195052,-1.136769276005651e-06,-0.0002413365382878511,-0.005203766056085734,0.9853705167770386,-0.010273146443068981,-3.7193296975601697e-06,0.009426728822290897,0.8949116468429565,0.0018217313336208463,21.27764892578125,-0.22163093090057373,-0.0003328323073219508,2.3821009700986796e-07,-0.0004826783769838904,-0.01040757944457002
4840,177658180816,-23.762842178344727,61.24198913574219,0.0014632033417001367,0.9999864090304662,-1.5622195292207413e-06,-0.00032192090478401866,-0.005203663982611074,1.1816766262054443,-0.012313967570662498,-2.4509429294994334e-06,0.009686414152383804,0.9239282011985779,0.0011596290860325098,19.630611419677734,-0.20408211648464203,0.00012683868408203125,2.259398874936917e-07,-0.0006438493621483794,-0.010407375546299062
4841,177668180816,-23.74979591369629,61.24185562133789,0.0014153289375826716,0.9999863840054558,-1.9338209724958004e-06,-0.0003931474615869709,-0.005203579059358977,1.298481822013855,-0.013528387993574142,-1.5163420812314143e-06,0.008505708537995815,0.8161633610725403,0.0009672161540947855,11.680519104003906,-0.1214420422911644,9.34600830078125e-05,2.2395858274217383e-07,-0.0007863044235925374,-0.01040720597783903
4842,177678180816,-23.734813690185547,61.24169921875,0.0013650130713358521,0.999986351877329,-2.3274076534936047e-06,-0.00046795023207594604,-0.005203563801319303,1.492098331451416,-0.015544917434453964,-1.7070769899873994e-06,0.008973121643066406,0.8573870062828064,0.00018451936193741858,19.361650466918945,-0.20165294408798218,-1.9073489966103807e-05,2.152660936809866e-07,-0.0009359120491284296,-0.010407175809217305
4843,177688180816,-23.71829605102539,61.24152374267578,0.0013177490327507257,0.9999863164145438,-2.6879166987244524e-06,-0.0005385212184840898,-0.005203553722617006,1.6459652185440063,-0.017148196697235107,-1.802444444365392e-06,0.008334087207913399,0.8081642985343933,0.00010327752534067258,15.386688232421875,-0.16032792627811432,-9.536744983051904e-06,2.2868847817400233e-07,-0.001077055880843495,-0.01040715604356859
4844,177698180815,-23.70049285888672,61.241336822509766,0.001275024376809597,0.9999862802184057,-3.0172283058692055e-06,-0.0006021781312535306,-0.005203532199449795,1.7750788927078247,-0.01848919875919819,-3.1757354008732364e-06,0.007565352134406567,0.7290290594100952,0.00023717587464489043,12.911367416381836,-0.13410019874572754,-0.0001373291015625,2.3253293989856606e-07,-0.0012043714306503518,-0.010407113391379256
4845,177708180815,-23.681413650512695,61.24113464355469,0.0012363052228465676,0.9999862439196857,-3.3135784426873463e-06,-0.0006598150299684083,-0.005203518477469847,1.9029815196990967,-0.01981949247419834,-4.758834620588459e-06,0.006841573398560286,0.6612909436225891,0.0001522538368590176,12.790262222290039,-0.13302937150001526,-0.00015830992197152227,2.396538873082593e-07,-0.0013196467745533519,-0.010407086343649436
4846,177718180815,-23.66163444519043,61.24093246459961,0.0012057876447215676,0.9999862131018281,-3.553924970033724e-06,-0.0007051139329477157,-0.005203499589351642,1.9741849899291992,-0.020563019439578056,-7.019042641331907e-06,0.005454538855701685,0.5189886689186096,0.0002400903176749125,7.120347023010254,-0.0743526965379715,-0.00022602079843636602,2.3036840529256703e-07,-0.001410245876369599,-0.010407048892946606
4847,177728180815,-23.64067268371582,61.2407112121582,0.0011776733445003629,0.9999861827209895,-3.776812865306794e-06,-0.0007467769730416317,-0.005203525438775479,2.0928475856781006,-0.021801140159368515,-5.931854047958041e-06,0.005039304960519075,0.4775145649909973,-0.0003142826317343861,11.866259574890137,-0.12381207197904587,0.00010871885751839727,2.182248359720982e-07,-0.0014935731700160058,-0.010407100907811648
4848,177738180814,-23.61904525756836,61.24048614501953,0.001156120328232646,0.9999861572150182,-3.936682986092662e-06,-0.0007788438603154723,-0.00520372607702173,2.1600351333618164,-0.022498538717627525,-4.234314019413432e-06,0.0037373905070126057,0.3669719994068146,-0.0022859664168208838,6.718754768371582,-0.06973985582590103,0.00016975399921648204,2.3252351093438327e-07,-0.0015577077586854033,-0.010407502462569761
4849,177748180814,-23.59644889831543,61.24025344848633,0.0011376570910215378,0.9999861358040797,-4.081920690179381e-06,-0.000806499969084162,-0.005203627654123338,2.2570440769195557,-0.02350695990025997,-7.333755547733745e-06,0.0033122901804745197,0.3167093098163605,0.0011045965366065502,9.700894355773926,-0.10084211826324463,-0.00030994415283203125,2.29723187940484e-07,-0.001613020756281076,-0.010407305846379908
4850,177758180814,-23.5732364654541,61.240013122558594,0.0011239242739975452,0.9999861212162764,-4.181368312262227e-06,-0.0008268249185754881,-0.005203241095371379,2.3198273181915283,-0.02416457049548626,-5.750655873271171e-06,0.0023553785867989063,0.23292386531829834,0.0044618393294513226,6.278324127197266,-0.06576105952262878,0.00015830996562726796,2.4171856061177705e-07,-0.0016536711535332883,-0.010406532905485403
4851,177768180814,-23.549238204956055,61.23976516723633,0.0011132049839943647,0.9999861066892383,-4.262278697479084e-06,-0.0008426199299537368,-0.005203499013746738,2.3985300064086914,-0.024987630546092987,-4.692077709478326e-06,0.0018737493082880974,0.18168960511684418,-0.002971289213746786,7.870268821716309,-0.08230600506067276,0.0001058578200172633,2.4470533581660376e-07,-0.0016852616015927272,-0.010407048892946606
4852,177778180813,-23.52463722229004,61.23950958251953,0.0011059188982471824,0.999986094183536,-4.3205581540001264e-06,-0.0008533486143034235,-0.0052041538247535515,2.4591257572174072,-0.02561441995203495,-3.6144256227998994e-06,0.00130214833188802,0.1230243593454361,-0.007503756321966648,6.059575080871582,-0.06267894059419632,0.00010776521230582148,2.4091911461322965e-07,-0.0017067192938679302,-0.01040835862724833
4853,177788180813,-23.499366760253906,61.2392463684082,0.0011013030307367444,0.9999860891419154,-4.356419988081941e-06,-0.0008602626596965533,-0.005203984227011267,2.5264225006103516,-0.02631375752389431,-3.070831326112966e-06,0.0008194902329705656,0.07870383560657501,0.0019517468754202127,6.729674339294434,-0.06993375718593597,5.4359428759198636e-05,2.408682077308489e-07,-0.001720547575776139,-0.010408019490328263
4854,177798180813,-23.47356414794922,61.23897933959961,0.0010994338663294911,0.9999860889746518,-4.364340913561561e-06,-0.0008630044881050281,-0.005203562374536089,2.58014178276062,-0.026877986267209053,-2.8514862151496345e-06,0.00025662215193733573,0.031246745958924294,0.004827477503567934,5.3719282150268555,-0.056422874331474304,2.1934511096333154e-05,2.5283534113062484e-07,-0.0017260312429230452,-0.010407175809217305
4855,177808180813,-23.447145462036133,61.238704681396484,0.001099395682103932,0.9999860889746518,-4.364340913561561e-06,-0.0008630044881050281,-0.005203562374536089,2.6417922973632812,-0.027522750198841095,-2.117157009706716e-06,-1.6095331375254318e-05,-1.52445281855762e-05,-0.0014147182228043675,6.165051460266113,-0.0644763931632042,7.343292236328125e-05,2.5283534113062484e-07,-0.0017260312429230452,-0.010407175809217305
4856,177818180813,-23.42026138305664,61.238426208496094,0.0011016845237463713,0.999986089832951,-4.35275825804706e-06,-0.0008596070227399195,-0.005203959783181213,2.6890835762023926,-0.028016017749905586,-1.1348723774062819e-06,-0.0003214296593796462,-0.038751911371946335,-0.0031402248423546553,4.729127883911133,-0.04932675510644913,9.822846186580136e-05,2.4132568710416136e-07,-0.0017192362810284651,-0.010407970596355126
4857,177828180812,-23.392807006835938,61.23814010620117,0.0011052321642637253,0.9999860940600204,-4.321649444471869e-06,-0.0008543619365487135,-0.0052040112979113064,2.7456045150756836,-0.028603650629520416,-8.583068620282575e-07,-0.0006735135684721172,-0.06046067178249359,-0.0005870070890523493,5.652093887329102,-0.058763287961483,2.7656551537802443e-05,2.490400084366094e-07,-0.001708745923047075,-0.010408073585787906
4858,177838180812,-23.364931106567383,61.237850189208984,0.0011105346493422985,0.9999861008231545,-4.281503660912465e-06,-0.0008464345854462724,-0.005204007173791838,2.788313627243042,-0.02904810570180416,-1.554489131194714e-06,-0.0009281134116463363,-0.09039434045553207,4.131375317228958e-05,4.27091121673584,-0.04444550722837448,-6.961822509765625e-05,2.4681536021552593e-07,-0.0016928910119597214,-0.0104080652634095
4859,177848180812,-23.33653450012207,61.237552642822266,0.0011166381882503629,0.9999861082326397,-4.23559990582812e-06,-0.0008373151978695736,-0.005204058710137778,2.8404030799865723,-0.029591029509902,-1.0490417707842425e-06,-0.0010712344665080309,-0.1045820564031601,-0.0005937849637120962,5.208945274353027,-0.054292380809783936,5.054473513155244e-05,2.4379310734243576e-07,-0.0016746519995332314,-0.01040816825284228
4860,177858180812,-23.307750701904297,61.23725509643555,0.0011240767780691385,0.9999861171237844,-4.1772679616756536e-06,-0.0008262289068189223,-0.0052041222161628865,2.879423141479492,-0.029995804652571678,-1.039505036715127e-06,-0.0013336683623492718,-0.12737266719341278,-0.0007098444039002061,3.902006149291992,-0.04047751426696777,9.536734069115482e-07,2.4517281560647375e-07,-0.0016524791028637202,-0.01040829516911298
4861,177868180811,-23.278480529785156,61.2369499206543,0.0011320114135742188,0.9999861265558573,-4.1123198316357355e-06,-0.0008143677484099926,-0.005204179481150135,2.9278721809387207,-0.030501803383231163,-1.0681152389224735e-06,-0.0014466714346781373,-0.13538911938667297,-0.0006788935279473662,4.844903945922852,-0.050599873065948486,-2.8610202207346447e-06,2.517066274485028e-07,-0.0016287564232903239,-0.01040840960181607
4862,177878180811,-23.248851776123047,61.23664474487305,0.0011407851707190275,0.9999861370121457,-4.043130720404516e-06,-0.0008010164964122915,-0.005204242476261702,2.963894844055176,-0.030877649784088135,-1.554489131194714e-06,-0.0015852585202082992,-0.15256738662719727,-0.0007035497110337019,3.602266311645508,-0.037584640085697174,-4.863739013671875e-05,2.5121913095184074e-07,-0.001602053552024426,-0.010408535477789468
4863,177888180811,-23.21877098083496,61.236331939697266,0.0011499023530632257,0.9999861474562801,-3.973796495321387e-06,-0.00078742681873493,-0.005204309633440596,3.0093319416046143,-0.03135286271572113,1.697540255918284e-06,-0.001604466699063778,-0.1556161791086197,-0.0007689885096624494,4.543709754943848,-0.04752129316329956,0.00032520294189453125,2.48543368701952e-07,-0.0015748738344832681,-0.010408669676141272
4864,177898180811,-23.1883544921875,61.23601531982422,0.0011597824050113559,0.999986158474939,-3.8996304653788115e-06,-0.0007728239030689217,-0.005204381475438925,3.0429272651672363,-0.03170377388596535,1.09672544112982e-06,-0.0017314435681328177,-0.16829624772071838,-0.0008219002629630268,3.359532356262207,-0.03509111702442169,-6.008148193359375e-05,2.449881253737017e-07,-0.001545667617800128,-0.010408813237168784
4865,177908180811,-23.157506942749023,61.23569107055664,0.0011696242727339268,0.9999861693391313,-3.826013720229793e-06,-0.0007581612965299198,-0.005204450716467599,3.085853099822998,-0.032150764018297195,1.411438006471144e-06,-0.0017138196853920817,-0.16755259037017822,-0.0007981672533787787,4.292583465576172,-0.044699013233184814,3.147125607938506e-05,2.397048735590254e-07,-0.0015163420270017198,-0.010408951596709792
4866,177918180810,-23.126344680786133,61.2353630065918,0.0011800002539530396,0.9999861805107207,-3.7504517577225646e-06,-0.0007428431088975389,-0.00520451319816977,3.117483139038086,-0.03247764706611633,1.4972686130931834e-06,-0.0017928642919287086,-0.1767650842666626,-0.0007155048660933971,3.163003921508789,-0.03268830478191376,8.583060662203934e-06,2.3147392753248197e-07,-0.0014857052714928006,-0.010409076432385889
4867,177928180810,-23.09477424621582,61.23503875732422,0.0011901473626494408,0.9999861914611804,-3.66128561682072e-06,-0.0007275846147247069,-0.005204564745205824,3.1583163738250732,-0.03290051966905594,1.7261504581256304e-06,-0.0019136900082230568,-0.17306354641914368,-0.000589703326113522,4.0833234786987305,-0.04228726029396057,2.288818359375e-05,2.5105261607932e-07,-0.0014551877600619868,-0.01040917942181867
4868,177938180810,-23.062904357910156,61.23470687866211,0.0012006759643554688,0.9999862023766372,-3.5793639845367595e-06,-0.0007119684107100574,-0.005204627222153887,3.188351631164551,-0.033215854316949844,1.8978118987433845e-06,-0.0018778260564431548,-0.1796346753835678,-0.000715400674380362,3.003525733947754,-0.031533464789390564,1.7166144971270114e-05,2.524314036700876e-07,-0.0014239549141997021,-0.010409304257494768
4869,177948180810,-23.030643463134766,61.23436737060547,0.0012108993250876665,0.9999862127684125,-3.504036709425513e-06,-0.0006967694019856993,-0.00520468761880821,3.2274327278137207,-0.03362302854657173,2.250671286674333e-06,-0.0017657577991485596,-0.1737392246723175,-0.0006957424338907003,3.908109664916992,-0.04071742296218872,3.528593879309483e-05,2.4495760029268574e-07,-0.0013935565168098313,-0.01040942493198166
4870,177958180809,-22.99809455871582,61.234031677246094,0.001221351558342576,0.9999862232134692,-3.420546966926458e-06,-0.0006812128286252644,-0.005204740209048599,3.2561776638031006,-0.033919744193553925,1.4400482086784905e-06,-0.0018856836250051856,-0.178329199552536,-0.0006013105157762766,2.8744935989379883,-0.0296715646982193,-8.106230961857364e-05,2.500721466674049e-07,-0.0013624429150256522,-0.010409530002009044
4871,177968180809,-22.96516990661621,61.23368835449219,0.0012313842307776213,0.9999862328941485,-3.342266886595014e-06,-0.000666371441909035,-0.005204801638933022,3.2937867641448975,-0.034313738346099854,1.077651972991589e-06,-0.0017900689272210002,-0.1707741916179657,-0.0006908655050210655,3.7609100341796875,-0.039399415254592896,-3.62396240234375e-05,2.522208234700056e-07,-0.0013327597220300898,-0.01040965275709054
4872,177978180809,-22.93196678161621,61.23334503173828,0.0012415695236995816,0.9999862426090956,-3.261602033744921e-06,-0.0006511725255124266,-0.005204858907491541,3.321488857269287,-0.034601740539073944,1.4400482086784905e-06,-0.001828291337005794,-0.1738729029893875,-0.0006731824832968414,2.770209312438965,-0.028800219297409058,3.62396240234375e-05,2.554081308373256e-07,-0.0013023614546773816,-0.010409767189793629
4873,177988180809,-22.898401260375977,61.23299026489258,0.0012511825188994408,0.9999862515864799,-3.185821153984059e-06,-0.0006366887974833708,-0.0052049260558609724,3.3578577041625977,-0.034982457756996155,6.666183253400959e-06,-0.0017248031217604876,-0.16520269215106964,-0.000735585403162986,3.6368846893310547,-0.03807172179222107,0.0005226134671829641,2.5628172278149215e-07,-0.00127339359611329,-0.010409901388145433
4874,177998180809,-22.864564895629883,61.23263931274414,0.001261215191334486,0.9999862604805249,-3.107105086818721e-06,-0.0006221454617612204,-0.005204976037058271,3.38472318649292,-0.03525843843817711,5.321502612787299e-06,-0.0017765735974535346,-0.16729852557182312,-0.0005799080827273428,2.6865482330322266,-0.027598068118095398,-0.00013446806406136602,2.6237984980883317e-07,-0.0012443064934710931,-0.010410001256686311
4875,178008180808,-22.83037567138672,61.23228454589844,0.0012703322572633624,0.9999862686702689,-3.033083240459291e-06,-0.000608377003280184,-0.005205030176221432,3.420036792755127,-0.0356273353099823,5.197524842515122e-06,-0.0016711170319467783,-0.1578940749168396,-0.0006107970257289708,3.531360626220703,-0.036889687180519104,-1.2397777027217671e-05,2.671583345661894e-07,-0.0012167691737327811,-0.010410109447605596
4876,178018180808,-22.79592514038086,61.23192596435547,0.0012797164963558316,0.9999862767250637,-2.966566183658698e-06,-0.0005944892599484714,-0.005205087440529191,3.4462344646453857,-0.03590087220072746,4.673004241340095e-06,-0.0015925103798508644,-0.15928515791893005,-0.0006493589607998729,2.619767189025879,-0.027353689074516296,-5.245205829851329e-05,2.5568639639645704e-07,-0.001188993365838258,-0.010410223880308685
4877,178028180808,-22.76112937927246,61.2315673828125,0.0012884902535006404,0.9999862841211048,-2.8924606282432464e-06,-0.0005814360806560464,-0.005205141053122495,3.480654716491699,-0.03625956550240517,3.890991138177924e-06,-0.001626215293072164,-0.14938952028751373,-0.0006464850157499313,3.4420251846313477,-0.035869330167770386,-7.820130849722773e-05,2.6807189642923176e-07,-0.0011628865849257254,-0.01041033103093067
4878,178038180808,-22.726076126098633,61.231201171875,0.0012973403790965676,0.9999862913075205,-2.8241746247728814e-06,-0.0005683232481376355,-0.005205208712477213,3.5063259601593018,-0.03652959689497948,3.0040739602554822e-06,-0.0015656264731660485,-0.1503087729215622,-0.0007575093768537045,2.567124366760254,-0.02700313925743103,-8.869171870173886e-05,2.6821060061951645e-07,-0.001136660559935087,-0.010410466269579775
4879,178048180807,-22.690685272216797,61.23082733154297,0.0013056182069703937,0.9999862978908294,-2.7610465854873525e-06,-0.0005560448483201615,-0.005205270127171816,3.5399813652038574,-0.0368795208632946,2.3937225250847405e-06,-0.001450429786927998,-0.140144482254982,-0.0007052023429423571,3.3655405044555664,-0.03499239683151245,-6.103514169808477e-05,2.66709934936164e-07,-0.0011121034318892769,-0.010410589024661271
4880,178058180807,-22.65504264831543,61.2304573059082,0.0013138961512595415,0.9999863043991827,-2.6986010114174317e-06,-0.0005437664448643325,-0.005205316977477535,3.5652458667755127,-0.03713858127593994,9.346007914246002e-07,-0.0014497946249321103,-0.1408439427614212,-0.000539047468919307,2.5264501571655273,-0.025906041264533997,-0.00014591217041015625,2.6382546558008815e-07,-0.0010875463038434667,-0.010410682651418344
4881,178068180807,-22.61907196044922,61.23008346557617,0.0013215637300163507,0.9999863102386406,-2.6372931183161376e-06,-0.0005324417082311904,-0.005205365902727217,3.5982463359832764,-0.03748320788145065,2.3078916910890257e-06,-0.0013873996213078499,-0.13063688576221466,-0.0005592407542280853,3.300046920776367,-0.03446266055107117,0.00013732908701058477,2.685939499208869e-07,-0.0010648964958801142,-0.010410780439364619
4882,178078180807,-22.582849502563477,61.229705810546875,0.0013292693765833974,0.9999863160321448,-2.579745307478102e-06,-0.0005209381809701517,-0.005205416910882876,3.6232094764709473,-0.037743620574474335,1.7929077102962765e-06,-0.0013393651461228728,-0.1311849057674408,-0.0005907326121814549,2.49631404876709,-0.026041269302368164,-5.149839853402227e-05,2.639809641207186e-07,-0.001041889150738189,-0.0104108823885001
4883,178088180807,-22.546300888061523,61.22932434082031,0.0013363647740334272,0.9999863212395438,-2.5260660500201235e-06,-0.000510388273829611,-0.005205461673386921,3.655648708343506,-0.038079917430877686,8.773803301664884e-07,-0.0012457513948902488,-0.12099168449640274,-0.0004964011604897678,3.2439231872558594,-0.03362968564033508,-9.1552734375e-05,2.6155033906590496e-07,-0.0010207890606601404,-0.010410971854067969
4884,178098180806,-22.509504318237305,61.228939056396484,0.0013434982392936945,0.9999863263843713,-2.46718416903057e-06,-0.0004997788358943558,-0.005205502792014442,3.6804041862487793,-0.038337044417858124,5.81741346650233e-07,-0.001306859776377678,-0.1214776262640953,-0.0004822724440600723,2.4755477905273438,-0.025712698698043823,-2.956389835162554e-05,2.6889951820458803e-07,-0.0009995698565411486,-0.010411054037554733
4885,178108180806,-22.472387313842773,61.228553771972656,0.0013500595232471824,0.9999863310113944,-2.412098993600065e-06,-0.0004900634281465293,-0.005205537665615572,3.712369918823242,-0.03866882622241974,1.1348723774062819e-06,-0.0012127908412367105,-0.11150222271680832,-0.0004169094318058342,3.196573257446289,-0.0331781804561615,5.5313103075604886e-05,2.779553557340307e-07,-0.0009801387284265092,-0.010411123737473887
4886,178118180806,-22.435026168823242,61.2281608581543,0.0013566208072006702,0.9999863355401354,-2.3647791828067738e-06,-0.0004802883895995996,-0.0052055787845472455,3.737013578414917,-0.038926031440496445,1.6307830037476378e-06,-0.0011250653769820929,-0.11196202784776688,-0.0004512589948717505,2.4643659591674805,-0.025720521807670593,4.9591064453125e-05,2.708644889423953e-07,-0.0009605884212523455,-0.010411205920960651
4887,178128180806,-22.397348403930664,61.2277717590332,0.001362609793432057,0.9999863396399369,-2.3171329769390034e-06,-0.00047134781239028726,-0.005205608455444462,3.7685813903808594,-0.03925246000289917,1.5068053471622989e-06,-0.0010766088962554932,-0.10217364132404327,-0.0003411623474676162,3.1567811965942383,-0.03264285624027252,-1.239776611328125e-05,2.731017884841079e-07,-0.0009427070110230097,-0.010411265217906798
4888,178138180805,-22.359426498413086,61.22737503051758,0.0013686370803043246,0.999986343652152,-2.270396009148639e-06,-0.00046234764008024857,-0.005205644888500169,3.793074607849121,-0.039509259164333344,1.7261504581256304e-06,-0.0010700682178139687,-0.10288386791944504,-0.00043045071652159095,2.449321746826172,-0.02567991614341736,2.1934511096333154e-05,2.729053676039771e-07,-0.0009247064217341496,-0.010411338038717854
4889,178148180805,-22.32118797302246,61.22697448730469,0.0013741302536800504,0.9999863471993017,-2.2277093758158063e-06,-0.00045424152918105583,-0.0052056771574931545,3.824171304702759,-0.03983207792043686,6.961822123230377e-07,-0.000978779629804194,-0.09345325082540512,-0.0003650563885457814,3.1096696853637695,-0.03228187561035156,-0.00010299681889591739,2.73911695235848e-07,-0.0009084939734682231,-0.010411402537150505
4890,178158180805,-22.282711029052734,61.2265739440918,0.0013796996790915728,0.999986350782172,-2.1831851286787855e-06,-0.00044595659180441457,-0.005205705265056614,3.848353385925293,-0.04008236899971962,2.0122527075727703e-06,-0.0010013141436502337,-0.09462244808673859,-0.00031537667382508516,2.418208122253418,-0.025029107928276062,0.00013160704111214727,2.7672660613897957e-07,-0.0008919238579865612,-0.010411458713204749
4891,178168180805,-22.24393081665039,61.22616958618164,0.001384735107421875,0.9999863539416555,-2.143034764685638e-06,-0.0004385061238363004,-0.005205731289713977,3.878929615020752,-0.04040083289146423,8.106231348392612e-07,-0.0009088446968235075,-0.08577416837215424,-0.00030118616996333003,3.0576229095458984,-0.031846389174461365,-0.0001201629638671875,2.7947916523855905e-07,-0.0008770227044683085,-0.01041151072806979
4892,178178180805,-22.204906463623047,61.225765228271484,0.0013898467877879739,0.9999863570997252,-2.097534323872931e-06,-0.00043093647052233364,-0.005205756792207905,3.902926206588745,-0.04065033048391342,7.05719003235572e-07,-0.0009765591821633279,-0.08707310259342194,-0.0002966616884805262,2.3996591567993164,-0.024949759244918823,-1.0490412932995241e-05,2.9168961036054646e-07,-0.0008618831278124259,-0.01041156170263753
4893,178188180804,-22.16558265686035,61.2253532409668,0.00139446253888309,0.999986359903734,-2.0607643632990702e-06,-0.0004240224279341628,-0.00520578593619544,3.933037042617798,-0.04096516966819763,1.8119811784345075e-07,-0.0008288779063150287,-0.07873949408531189,-0.0003345914592500776,3.0110836029052734,-0.03148391842842102,-5.245208740234375e-05,2.93267580851256e-07,-0.0008480548459042172,-0.010411619959286375
