frame,timestamp,acc x (m/s^2),acc y (m/s^2),acc z (m/s^2),gyro x (rad/s),gyro y (rad/s),gyro z (rad/s),x (Ground truth),y (Ground truth),z (Ground truth),yaw (Ground Truth),pitch (Ground Truth),roll (Ground Truth)
449,10.34880379759852,0.0,-0.0,0.010000228881835938,-0.0,-0.0,-0.0,-23.800546646118164,61.24238586425781,0.09412002563476562,-0.5967352390289307,-0.0,0.0
450,10.358803797375003,0.0,-0.0,0.01007843017578125,-0.0,-0.0,-0.0,-23.800546646118164,61.24238586425781,0.0902000442147255,-0.5967352390289307,-0.0,0.0
451,10.368803797151486,0.0,-0.0,0.009688377380371094,-0.0,-0.0,-0.0,-23.800546646118164,61.24238586425781,0.0853000208735466,-0.5967352390289307,-0.0,0.0
452,10.378803796927969,0.0,-0.0,0.01007843017578125,-0.0,-0.0,-0.0,-23.800546646118164,61.24238586425781,0.07942001521587372,-0.5967352390289307,-0.0,0.0
453,10.388803796704451,0.0,-0.0,3.618281841278076,7.764093425066676e-06,3.1802646844880655e-06,3.052793478078297e-14,-23.800546646118164,61.24238586425781,0.07292083650827408,-0.5967352390289307,-0.0,0.0
454,10.398803796480934,0.0,-0.0,15.623672485351562,3.7483478081412613e-06,2.2674150841339724e-06,1.2305662044909127e-10,-23.800546646118164,61.24238586425781,0.06700301915407181,-0.5967352390289307,-0.0,0.0
455,10.408803796257416,0.0,-0.0,14.684375762939453,2.439925310682156e-06,1.6787168988230405e-06,-1.0622225321554879e-10,-23.800546646118164,61.24238586425781,0.06157264485955238,-0.5967352390289307,-0.0,0.0
456,10.418803796033899,0.0,-0.0,14.286523818969727,2.609408966236515e-06,1.7602388879822684e-06,-1.2580575470266808e-11,-23.800546646118164,61.24238586425781,0.05658992752432823,-0.5967352390289307,-0.0,0.0
457,10.428803795810381,0.0,-0.0,13.921133041381836,2.7156618216395145e-06,1.1194910030098981e-06,-7.372980004305418e-11,-23.800546646118164,61.24238586425781,0.05201831832528114,-0.5967352390289307,-0.0,0.0
458,10.438803795586864,0.0,-0.0,13.585039138793945,2.1767066300526494e-06,1.5096852621354628e-06,-1.133676486020363e-12,-23.800546646118164,61.24238586425781,0.04782421141862869,-0.5967352390289307,-0.0,0.0
459,10.448803795363347,0.0,-0.0,13.276406288146973,7.206526220215892e-07,8.39585197809356e-07,-1.248986469803981e-10,-23.800546646118164,61.24238586425781,0.04397674277424812,-0.5967352390289307,-0.0,0.0
460,10.45880379513983,0.0,-0.0,12.992578506469727,7.640011858711659e-07,1.442740824586508e-07,-1.120500914275624e-11,-23.800546646118164,61.24238586425781,0.04044754058122635,-0.5967352390289307,-0.0,0.0
461,10.468803794916312,0.0,-0.0,12.731719017028809,1.5151132402024814e-06,5.051587663729151e-07,-3.6573744033319144e-11,-23.800546646118164,61.24238586425781,0.03721050173044205,-0.5967352390289307,-0.0,0.0
462,10.478803794692794,0.0,-0.0,12.492071151733398,1.5397897641378222e-06,5.098428346173023e-07,1.719631381735809e-11,-23.800546646118164,61.24238586425781,0.034241676330566406,-0.5967352390289307,-0.0,0.0
463,10.488803794469277,0.0,-0.0,12.272031784057617,9.341625855086022e-07,1.627390133762674e-07,-1.1637707464373648e-10,-23.800546646118164,61.24238586425781,0.031519051641225815,-0.5967352390289307,-0.0,0.0
464,10.49880379424576,0.0,-0.0,12.069063186645508,2.96973912128351e-08,5.132670253260585e-07,3.8845510141882755e-11,-23.800546646118164,61.24238586425781,0.029022330418229103,-0.5967352390289307,-0.0,0.0
465,10.508803794022242,0.0,-0.0,11.883652687072754,4.4065725290920454e-08,-1.8750408514733863e-07,-9.503517417464025e-11,-23.800546646118164,61.24238586425781,0.026732977479696274,-0.5967352390289307,-0.0,0.0
466,10.518803793798725,0.0,-0.0,11.712793350219727,2.661942488657587e-08,-2.063637651872341e-07,-2.085798200823774e-11,-23.800546646118164,61.24238586425781,0.024633903056383133,-0.5967352390289307,-0.0,0.0
467,10.528803793575207,0.0,-0.0,11.555976867675781,-1.284427497694196e-08,4.907338393422833e-07,1.0381204229581442e-10,-23.800546646118164,61.24238586425781,0.022709425538778305,-0.5967352390289307,-0.0,0.0
468,10.53880379335169,0.0,-0.0,11.41177749633789,8.689244168635923e-07,1.3181329450162593e-07,-4.6278411658384755e-11,-23.800546646118164,61.24238586425781,0.020945128053426743,-0.5967352390289307,-0.0,0.0
469,10.548803793128172,0.0,-0.0,11.279824256896973,-5.086518939378948e-08,4.635485026938113e-07,5.956957149777509e-12,-23.800546646118164,61.24238586425781,0.019327811896800995,-0.5967352390289307,-0.0,0.0
470,10.558803792904655,0.0,-0.0,11.158105850219727,-7.302086828531174e-07,9.872711359548703e-08,-8.63782378957012e-11,-23.800546646118164,61.24238586425781,0.017845306545495987,-0.5967352390289307,-0.0,0.0
471,10.568803792681138,0.0,-0.0,11.046719551086426,-7.823010719221202e-07,7.71320074477444e-08,5.739980712959891e-11,-23.800546646118164,61.24238586425781,0.016486473381519318,-0.5967352390289307,-0.0,0.0
472,10.57880379245762,0.0,-0.0,10.944501876831055,5.400851819103991e-07,6.188166423726216e-08,-1.4306555939924692e-11,-23.800546646118164,61.24238586425781,0.015241088345646858,-0.5967352390289307,-0.0,0.0
473,10.588803792234103,0.0,-0.0,10.850263595581055,7.514868798352836e-07,-6.676468728983309e-07,-8.758452296753205e-11,-23.800546646118164,61.24238586425781,0.014099731110036373,-0.5967352390289307,-0.0,0.0
474,10.598803792010585,0.0,-0.0,10.764433860778809,-1.4852145113763981e-07,3.6056295016351214e-07,5.739447805908071e-11,-23.800546646118164,61.24238586425781,0.013053817674517632,-0.5967352390289307,-0.0,0.0
475,10.608803791787068,0.0,-0.0,10.684717178344727,7.097777370290714e-07,1.2333323251567663e-09,1.890160250539452e-11,-23.800546646118164,61.24238586425781,0.01209537498652935,-0.5967352390289307,-0.0,0.0
476,10.61880379156355,0.0,-0.0,10.612607955932617,-1.9379618265702447e-07,3.291761174750718e-07,7.475478569496374e-12,-23.800546646118164,61.24238586425781,0.011217193678021431,-0.5967352390289307,-0.0,0.0
477,10.628803791340033,0.0,-0.0,10.545478820800781,-8.981349424175278e-07,-7.40166399282316e-07,-4.521816254765554e-11,-23.800546646118164,61.24238586425781,0.010412558913230896,-0.5967352390289307,-0.0,0.0
478,10.638803791116516,0.0,-0.0,10.484434127807617,6.55069925414864e-07,-5.8070035890978033e-08,4.4403439258822175e-11,-23.800546646118164,61.24238586425781,0.009675368666648865,-0.5967352390289307,-0.0,0.0
479,10.648803790892998,0.0,-0.0,10.428369522094727,-2.5551761950737273e-07,3.005783923981653e-07,1.7881252034612771e-12,-23.800546646118164,61.24238586425781,0.009000015445053577,-0.5967352390289307,-0.0,0.0
480,10.65880379066948,0.0,-0.0,10.376855850219727,-2.9768784770567436e-07,-4.000862077191414e-07,-1.3769152484854885e-11,-23.800546646118164,61.24238586425781,0.008381347171962261,-0.5967352390289307,-0.0,0.0
481,10.668803790445963,0.0,-0.0,10.329946517944336,-3.065360658638383e-07,2.7900779286937905e-07,4.345132587069145e-11,-23.800546646118164,61.24238586425781,0.007814674638211727,-0.5967352390289307,-0.0,0.0
482,10.678803790222446,0.0,-0.0,10.2860746383667,-3.5071511206297146e-07,-4.451780739600508e-07,-1.488331680121746e-11,-23.800546646118164,61.24238586425781,0.0072956085205078125,-0.5967352390289307,-0.0,0.0
483,10.688803789998929,0.0,-0.0,10.2464017868042,5.232237754171365e-07,-9.777975407132544e-08,6.610481606550422e-11,-23.800546646118164,61.24238586425781,0.006820182781666517,-0.5967352390289307,-0.0,0.0
484,10.698803789775411,0.0,-0.0,10.210165977478027,-3.8245889300014824e-07,2.5234709255528287e-07,4.4157691392321397e-11,-23.800546646118164,61.24238586425781,0.006384773179888725,-0.5967352390289307,-0.0,0.0
485,10.708803789551894,0.0,-0.0,10.176587104797363,-3.9053091427376785e-07,-4.5639814061360084e-07,-3.432598649766305e-11,-23.800546646118164,61.24238586425781,0.005986022762954235,-0.5967352390289307,-0.0,0.0
486,10.718803789328376,0.0,-0.0,10.1456937789917,-3.8456875017800485e-07,2.419708380330121e-07,3.120165237291417e-11,-23.800546646118164,61.24238586425781,0.00562084186822176,-0.5967352390289307,-0.0,0.0
487,10.728803789104859,0.0,-0.0,10.118232727050781,4.6794258423688007e-07,-1.1739359706552932e-07,4.786748775131855e-11,-23.800546646118164,61.24238586425781,0.005286483559757471,-0.5967352390289307,-0.0,0.0
488,10.738803788881341,0.0,-0.0,10.091904640197754,4.850401751355093e-07,-1.1839097879828842e-07,1.427915945206859e-12,-23.800546646118164,61.24238586425781,0.004980315919965506,-0.5967352390289307,-0.0,0.0
489,10.748803788657824,0.0,-0.0,10.068252563476562,-4.001828983746236e-07,2.3261230808202527e-07,-1.3946455101887523e-11,-23.800546646118164,61.24238586425781,0.004699973855167627,-0.5967352390289307,-0.0,0.0
490,10.758803788434307,0.0,-0.0,10.046895027160645,4.718627053534874e-07,-1.1880390360374804e-07,-1.2869705301454815e-12,-23.800546646118164,61.24238586425781,0.004443320911377668,-0.5967352390289307,-0.0,0.0
491,10.76880378821079,0.0,-0.0,10.0266752243042,-4.240089879203879e-07,2.3313296537708084e-07,4.047980700638831e-11,-23.800546646118164,61.24238586425781,0.004208335652947426,-0.5967352390289307,-0.0,0.0
492,10.778803787987272,0.0,-0.0,10.008745193481445,-4.3267934302093636e-07,2.3035335061649675e-07,2.0913840104164194e-11,-23.800546646118164,61.24238586425781,0.003993224818259478,-0.5967352390289307,-0.0,0.0
493,10.788803787763754,0.0,-0.0,9.991963386535645,4.471645240755606e-07,-1.3524832809252985e-07,3.224054356820716e-11,-23.800546646118164,61.24238586425781,0.0037963103968650103,-0.5967352390289307,-0.0,0.0
494,10.798803787540237,0.0,-0.0,9.976699829101562,1.3729361398873152e-06,-4.948279297423142e-07,-3.448011667850359e-11,-23.800546646118164,61.24238586425781,0.003616065951064229,-0.5967352390289307,-0.0,0.0
495,10.80880378731672,0.0,-0.0,9.962591171264648,-3.934179915177083e-07,2.033625889907853e-07,-8.087974734394265e-14,-23.800546646118164,61.24238586425781,0.0034510802943259478,-0.5967352390289307,-0.0,0.0
496,10.818803787093202,0.0,-0.0,9.950000762939453,-4.0721374716667924e-07,2.0158056202035368e-07,-2.01899885698964e-11,-23.800546646118164,61.24238586425781,0.00330009451135993,-0.5967352390289307,-0.0,0.0
497,10.828803786869685,0.0,-0.0,9.937790870666504,-4.3979085262435547e-07,1.9836156184283027e-07,-3.9052303058007e-12,-23.800546646118164,61.24238586425781,0.0031618881039321423,-0.5967352390289307,-0.0,0.0
498,10.838803786646167,0.0,-0.0,9.92749309539795,-4.729974705242057e-07,2.0172879544588795e-07,-7.386855016555671e-12,-23.800546646118164,61.24238586425781,0.003035430796444416,-0.5967352390289307,-0.0,0.0
499,10.84880378642265,0.0,-0.0,9.917192459106445,1.282614107367408e-06,-5.171975203666079e-07,-2.3988533381924526e-11,-23.800546646118164,61.24238586425781,0.002919693011790514,-0.5967352390289307,-0.0,0.0
500,10.858803786199132,0.0,-0.0,9.90842056274414,4.0456367855767894e-07,-1.7662785012362292e-07,-2.03839167767228e-11,-23.800546646118164,61.24238586425781,0.002813796978443861,-0.5967352390289307,-0.0,0.0
501,10.868803785975615,0.0,-0.0,9.899646759033203,-4.960713226864755e-07,1.6737125463350822e-07,2.0616841567289157e-13,-23.800546646118164,61.24238586425781,0.0027168653905391693,-0.5967352390289307,-0.0,0.0
502,10.878803785752098,0.0,-0.0,9.8923978805542,3.7384413076324563e-07,-1.9109870663669426e-07,-4.1648677562289294e-11,-23.800546646118164,61.24238586425781,0.002628173679113388,-0.5967352390289307,-0.0,0.0
503,10.88880378552858,0.0,-0.0,9.885530471801758,-5.434366130430135e-07,1.472182304951275e-07,5.128050761804559e-11,-23.800546646118164,61.24238586425781,0.002547035226598382,-0.5967352390289307,-0.0,0.0
504,10.898803785305063,0.0,-0.0,9.879048347473145,3.474306140560657e-07,-1.9998869049686618e-07,-5.194825125620639e-11,-23.800546646118164,61.24238586425781,0.0024728011339902878,-0.5967352390289307,-0.0,0.0
505,10.908803785081545,0.0,-0.0,9.873323440551758,-5.593064429376682e-07,1.5668473452024045e-07,4.8327175594664595e-12,-23.800546646118164,61.24238586425781,0.0024048995692282915,-0.5967352390289307,-0.0,0.0
506,10.918803784858028,0.0,-0.0,9.8679838180542,2.9576409588116803e-07,-1.928091393210707e-07,1.108854674747306e-11,-23.800546646118164,61.24238586425781,0.0023427961859852076,-0.5967352390289307,-0.0,0.0
507,10.92880378463451,0.0,-0.0,9.862642288208008,-6.016594511493167e-07,1.6525974899650464e-07,1.0807743588969743e-12,-23.800546646118164,61.24238586425781,0.0022859573364257812,-0.5967352390289307,-0.0,0.0
508,10.938803784410993,0.0,-0.0,9.858448028564453,2.5720822804942145e-07,-1.889577561087208e-07,4.766770311803725e-12,-23.800546646118164,61.24238586425781,0.002233962994068861,-0.5967352390289307,-0.0,0.0
509,10.948803784187476,0.0,-0.0,9.854634284973145,2.523643445329071e-07,-1.913286240551315e-07,1.2634525370369687e-11,-23.800546646118164,61.24238586425781,0.002186431782320142,-0.5967352390289307,-0.0,0.0
510,10.958803783963958,0.0,-0.0,9.850435256958008,2.49479995773072e-07,-2.002768155762169e-07,6.4382804643159375e-12,-23.800546646118164,61.24238586425781,0.002142944373190403,-0.5967352390289307,-0.0,0.0
511,10.96880378374044,0.0,-0.0,9.847002029418945,2.6920079676528985e-07,-2.003118595439446e-07,-4.454653312890855e-11,-23.800546646118164,61.24238586425781,0.0021031571086496115,-0.5967352390289307,-0.0,0.0
512,10.978803783516923,0.0,-0.0,9.84433364868164,-6.261927296691283e-07,1.488257055370923e-07,-6.499106808277588e-12,-23.800546646118164,61.24238586425781,0.0020668029319494963,-0.5967352390289307,-0.0,0.0
513,10.988803783293406,0.0,-0.0,9.840898513793945,-6.363745796988951e-07,1.5076530246460607e-07,-1.934635784905936e-11,-23.800546646118164,61.24238586425781,0.0020335388835519552,-0.5967352390289307,-0.0,0.0
514,10.998803783069889,0.0,-0.0,9.838229179382324,-6.6476530946602e-07,1.4846564511117322e-07,3.169273177228149e-11,-23.800546646118164,61.24238586425781,0.00200309744104743,-0.5967352390289307,-0.0,0.0
515,11.008803782846371,0.0,-0.0,9.836320877075195,2.1708616770865774e-07,-2.020480707187744e-07,-1.6557033521991116e-12,-23.800546646118164,61.24238586425781,0.0019752883818000555,-0.5967352390289307,-0.0,0.0
516,11.018803782622854,0.0,-0.0,9.83365249633789,8.766423889028374e-07,1.453906861570431e-07,4.001594888780602e-11,-23.800546646118164,61.24238586425781,0.0019498442998155951,-0.5967352390289307,-0.0,0.0
517,11.028803782399336,0.0,-0.0,9.831743240356445,2.3119019942896557e-07,-2.0301779102283035e-07,-7.992506656506748e-11,-23.800546646118164,61.24238586425781,0.0019265746232122183,-0.5967352390289307,-0.0,0.0
518,11.038803782175819,0.0,-0.0,9.82983684539795,-6.741089464412653e-07,1.4564034245267976e-07,-1.6281975767640233e-12,-23.800546646118164,61.24238586425781,0.0019052886636927724,-0.5967352390289307,-0.0,0.0
519,11.048803781952302,0.0,-0.0,9.8283109664917,-7.006702276157739e-07,1.476109332543274e-07,3.2271352257140506e-11,-23.800546646118164,61.24238586425781,0.0018858336843550205,-0.5967352390289307,-0.0,0.0
520,11.058803781728784,0.0,-0.0,9.82678508758545,-7.172804998845095e-07,1.4481835819424305e-07,2.6344260106725415e-11,-23.800546646118164,61.24238586425781,0.0018680571811273694,-0.5967352390289307,-0.0,0.0
521,11.068803781505267,0.0,-0.0,9.987765312194824,-0.0,-0.0,-0.0,-23.800546646118164,61.24238586425781,0.0018680571811273694,-0.5967352390289307,-0.0,0.0
522,11.07880378128175,0.0,-0.0,9.8100004196167,-0.0,-0.0,-0.0,-23.800546646118164,61.24238586425781,0.0018680571811273694,-0.5967352390289307,-0.0,0.0
523,11.088803781058232,0.0,-0.0,9.8100004196167,-0.0,-0.0,-0.0,-23.800546646118164,61.24238586425781,0.0018680571811273694,-0.5967352390289307,-0.0,0.0
524,11.098803780834714,0.0,-0.0,9.8100004196167,-0.0,-0.0,-0.0,-23.800546646118164,61.24238586425781,0.0018680571811273694,-0.5967352390289307,-0.0,0.0
525,11.108803780611197,0.0,-0.0,9.8100004196167,-0.0,-0.0,-0.0,-23.800546646118164,61.24238586425781,0.0018680571811273694,-0.5967352390289307,-0.0,0.0
526,11.11880378038768,0.0,-0.0,9.8100004196167,-0.0,-0.0,-0.0,-23.800546646118164,61.24238586425781,0.0018680571811273694,-0.5967352390289307,-0.0,0.0
527,11.128803780164162,0.0,-0.0,9.8100004196167,-0.0,-0.0,-0.0,-23.800546646118164,61.24238586425781,0.0018680571811273694,-0.5967352390289307,-0.0,0.0
528,11.138803779940645,0.0,-0.0,9.8100004196167,-0.0,-0.0,-0.0,-23.800546646118164,61.24238586425781,0.0018680571811273694,-0.5967352390289307,-0.0,0.0
529,11.148803779717127,0.0,-0.0,9.8100004196167,-0.0,-0.0,-0.0,-23.800546646118164,61.24238586425781,0.0018680571811273694,-0.5967352390289307,-0.0,0.0
530,11.15880377949361,0.0,-0.0,9.8100004196167,-0.0,-0.0,-0.0,-23.800546646118164,61.24238586425781,0.0018680571811273694,-0.5967352390289307,-0.0,0.0
531,11.168803779270092,0.0,-0.0,9.8100004196167,-0.0,-0.0,-0.0,-23.800546646118164,61.24238586425781,0.0018680571811273694,-0.5967352390289307,-0.0,0.0
532,11.178803779046575,0.0,-0.0,9.8100004196167,-0.0,-0.0,-0.0,-23.800546646118164,61.24238586425781,0.0018680571811273694,-0.5967352390289307,-0.0,0.0
533,11.188803778823058,0.0,-0.0,9.8100004196167,-0.0,-0.0,-0.0,-23.800546646118164,61.24238586425781,0.0018680571811273694,-0.5967352390289307,-0.0,0.0
534,11.19880377859954,0.0,-0.0,9.8100004196167,-0.0,-0.0,-0.0,-23.800546646118164,61.24238586425781,0.0018680571811273694,-0.5967352390289307,-0.0,0.0
535,11.208803778376023,0.0,-0.0,9.8100004196167,-0.0,-0.0,-0.0,-23.800546646118164,61.24238586425781,0.0018680571811273694,-0.5967352390289307,-0.0,0.0
536,11.218803778152505,0.0,-0.0,9.8100004196167,-0.0,-0.0,-0.0,-23.800546646118164,61.24238586425781,0.0018680571811273694,-0.5967352390289307,-0.0,0.0
537,11.228803777928988,0.0,-0.0,9.8100004196167,-0.0,-0.0,-0.0,-23.800546646118164,61.24238586425781,0.0018680571811273694,-0.5967352390289307,-0.0,0.0
538,11.23880377770547,0.0,-0.0,9.8100004196167,-0.0,-0.0,-0.0,-23.800546646118164,61.24238586425781,0.0018680571811273694,-0.5967352390289307,-0.0,0.0
539,11.248803777481953,0.0,-0.0,9.8100004196167,-0.0,-0.0,-0.0,-23.800546646118164,61.24238586425781,0.0018680571811273694,-0.5967352390289307,-0.0,0.0
540,11.258803777258436,0.0,-0.0,9.8100004196167,-0.0,-0.0,-0.0,-23.800546646118164,61.24238586425781,0.0018680571811273694,-0.5967352390289307,-0.0,0.0
541,11.268803777034918,0.0,-0.0,9.8100004196167,-0.0,-0.0,-0.0,-23.800546646118164,61.24238586425781,0.0018680571811273694,-0.5967352390289307,-0.0,0.0
542,11.278803776811401,0.0,-0.0,9.8100004196167,-0.0,-0.0,-0.0,-23.800546646118164,61.24238586425781,0.0018680571811273694,-0.5967352390289307,-0.0,0.0
543,11.288803776587883,0.0,-0.0,9.8100004196167,-0.0,-0.0,-0.0,-23.800546646118164,61.24238586425781,0.0018680571811273694,-0.5967352390289307,-0.0,0.0
544,11.298803776364366,0.0,-0.0,9.8100004196167,-0.0,-0.0,-0.0,-23.800546646118164,61.24238586425781,0.0018680571811273694,-0.5967352390289307,-0.0,0.0
545,11.308803776140849,0.0,-0.0,9.8100004196167,-0.0,-0.0,-0.0,-23.800546646118164,61.24238586425781,0.0018680571811273694,-0.5967352390289307,-0.0,0.0
546,11.318803775917331,0.0,-0.0,9.8100004196167,-0.0,-0.0,-0.0,-23.800546646118164,61.24238586425781,0.0018680571811273694,-0.5967352390289307,-0.0,0.0
547,11.328803775693814,0.0,-0.0,9.8100004196167,-0.0,-0.0,-0.0,-23.800546646118164,61.24238586425781,0.0018680571811273694,-0.5967352390289307,-0.0,0.0
548,11.338803775470296,0.0,-0.0,9.8100004196167,-0.0,-0.0,-0.0,-23.800546646118164,61.24238586425781,0.0018680571811273694,-0.5967352390289307,-0.0,0.0
549,11.348803775246779,0.0,-0.0,9.8100004196167,-0.0,-0.0,-0.0,-23.800546646118164,61.24238586425781,0.0018680571811273694,-0.5967352390289307,-0.0,0.0
550,11.358803775023262,0.0,-0.0,9.187824249267578,8.296945566144132e-07,-3.476048675565835e-07,9.90720838700554e-11,-23.800546646118164,61.24238586425781,0.0018058394780382514,-0.5967352390289307,-0.0,0.0
551,11.368803774799744,0.0,-0.0,9.905366897583008,8.514904266121448e-07,-3.528504066707683e-07,-8.771872117563362e-13,-23.800546646118164,61.24238586425781,0.001753158518113196,-0.5967352390289307,-0.0,0.0
552,11.378803774576227,0.0,-0.0,9.89392375946045,1.79934886546107e-07,3.773959811326222e-09,7.440209559561595e-11,-23.800546646118164,61.24238586425781,0.0017088699387386441,-0.5967352390289307,-0.0,0.0
553,11.38880377435271,0.0,-0.0,9.88286304473877,8.537203370906354e-07,3.5407720133662224e-07,3.6451827667427494e-11,-23.800546646118164,61.24238586425781,0.001671867328695953,-0.5967352390289307,-0.0,0.0
554,11.398803774129192,0.0,-0.0,9.872941017150879,-3.791717517742654e-08,1.0460401433931565e-08,-2.0785671794865124e-11,-23.800546646118164,61.24238586425781,0.0016411590622738004,-0.5967352390289307,-0.0,0.0
555,11.408803773905674,0.0,-0.0,9.865314483642578,8.402955700148595e-07,-3.381899489340867e-07,1.0331180355649394e-12,-23.800546646118164,61.24238586425781,0.001615982037037611,-0.5967352390289307,-0.0,0.0
556,11.418803773682157,0.0,-0.0,9.857685089111328,-4.931013819486907e-08,1.656401238392391e-08,-3.3573144264664734e-13,-23.800546646118164,61.24238586425781,0.001595573383383453,-0.5967352390289307,-0.0,0.0
557,11.42880377345864,0.0,-0.0,9.851198196411133,-7.608613117326968e-08,2.6074500780737253e-08,4.53725945703809e-12,-23.800546646118164,61.24238586425781,0.00157928466796875,-0.5967352390289307,-0.0,0.0
558,11.438803773235122,0.0,-0.0,9.84585952758789,-1.0081276258233629e-07,3.27251541420992e-08,5.810924658122829e-12,-23.800546646118164,61.24238586425781,0.0015665816608816385,-0.5967352390289307,-0.0,0.0
559,11.448803773011605,0.0,-0.0,9.840517044067383,-1.2534576399048092e-07,4.1731826883051326e-08,6.0766426612790525e-12,-23.800546646118164,61.24238586425781,0.0015569304814562201,-0.5967352390289307,-0.0,0.0
560,11.458803772788087,0.0,-0.0,9.83594036102295,7.653901690218845e-08,4.8337600588865826e-08,7.33581251299853e-12,-23.800546646118164,61.24238586425781,0.0015498732682317495,-0.5967352390289307,-0.0,0.0
561,11.46880377256457,0.0,-0.0,9.83212661743164,-1.7640508076510741e-07,5.7393251040593896e-08,-9.602076078696342e-12,-23.800546646118164,61.24238586425781,0.0015450286446139216,-0.5967352390289307,-0.0,0.0
562,11.478803772341053,0.0,-0.0,9.828691482543945,-2.131828722440332e-07,6.123722329220982e-08,4.1954190121984425e-11,-23.800546646118164,61.24238586425781,0.001542053185403347,-0.5967352390289307,-0.0,0.0
563,11.488803772117535,0.0,-0.0,9.826022148132324,-2.2686276679451112e-07,7.069736795983772e-08,5.5271009991031406e-11,-23.800546646118164,61.24238586425781,0.0015406799502670765,-0.5967352390289307,-0.0,0.0
564,11.498803771894018,0.0,-0.0,9.82373332977295,-2.799117382323857e-08,7.400689838732433e-08,3.004690246610764e-12,-23.800546646118164,61.24238586425781,0.0015406799502670765,-0.5967352390289307,-0.0,0.0
565,11.5088037716705,0.0,-0.0,9.820301055908203,6.261665248530335e-07,-2.6986225520886364e-07,-4.22714988013162e-11,-23.800546646118164,61.24238586425781,0.0015417098766192794,-0.5967352390289307,-0.0,0.0
566,11.518803771446983,0.0,-0.0,9.819536209106445,-2.9025326853115985e-07,8.682795282766165e-08,1.1155340540192071e-11,-23.800546646118164,61.24238586425781,0.0015436934772878885,-0.5967352390289307,-0.0,0.0
567,11.528803771223465,0.0,-0.0,9.81724739074707,5.75246872358548e-07,-2.56556432987054e-07,-3.432159417782188e-11,-23.800546646118164,61.24238586425781,0.001546401996165514,-0.5967352390289307,-0.0,0.0
568,11.538803770999948,0.0,-0.0,9.8161039352417,-1.1710329061997982e-07,9.726509375695969e-08,2.419795613883835e-11,-23.800546646118164,61.24238586425781,0.0015497207641601562,-0.5967352390289307,-0.0,0.0
569,11.54880377077643,0.0,-0.0,9.814579010009766,-1.4219065747056447e-07,1.0535795524901914e-07,-3.057635741821052e-12,-23.800546646118164,61.24238586425781,0.001553497277200222,-0.5967352390289307,-0.0,0.0
570,11.558803770552913,0.0,-0.0,9.813432693481445,-3.898394140833261e-07,1.1440467062584503e-07,-1.3058013004219049e-11,-23.800546646118164,61.24238586425781,0.0015576170990243554,-0.5967352390289307,-0.0,0.0
571,11.568803770329396,0.0,-0.0,9.812671661376953,-4.229106309594499e-07,1.1635525254405366e-07,3.992198238655931e-11,-23.800546646118164,61.24238586425781,0.0015620040940120816,-0.5967352390289307,-0.0,0.0
572,11.578803770105878,0.0,-0.0,9.811906814575195,-4.2799990751518635e-07,1.2391450354698463e-07,-1.430383589351436e-11,-23.800546646118164,61.24238586425781,0.0015665816608816385,-0.5967352390289307,-0.0,0.0
573,11.588803769882361,0.0,-0.0,9.81114387512207,4.228631098612823e-07,-2.2560028867246729e-07,1.5061674130123492e-11,-23.800546646118164,61.24238586425781,0.0015712737804278731,-0.5967352390289307,-0.0,0.0
574,11.598803769658844,0.0,-0.0,9.810382843017578,-4.8545729214311e-07,1.230619375292008e-07,4.703284983698097e-11,-23.800546646118164,61.24238586425781,0.0015760039677843451,-0.5967352390289307,-0.0,0.0
575,11.608803769435326,0.0,-0.0,9.810382843017578,-4.958397425980365e-07,1.2500065338372224e-07,2.6882968073849156e-11,-23.800546646118164,61.24238586425781,0.0015807723393663764,-0.5967352390289307,-0.0,0.0
576,11.618803769211809,0.0,-0.0,9.80961799621582,-5.137179073244624e-07,1.2692690631865844e-07,3.119624003566912e-11,-23.800546646118164,61.24238586425781,0.0015855026431381702,-0.5967352390289307,-0.0,0.0
577,11.628803768988291,0.0,-0.0,9.80961799621582,-5.302572390064597e-07,1.2366261614715768e-07,2.6121715901439302e-11,-23.800546646118164,61.24238586425781,0.001590194646269083,-0.5967352390289307,-0.0,0.0
578,11.638803768764774,0.0,-0.0,9.808856964111328,1.2453029967218754e-06,-5.806929834761831e-07,-3.0688424024205574e-11,-23.800546646118164,61.24238586425781,0.0015947723295539618,-0.5967352390289307,-0.0,0.0
579,11.648803768541256,0.0,-0.0,9.808856964111328,-5.363744435271656e-07,1.1939026478557935e-07,1.3307799306971901e-11,-23.800546646118164,61.24238586425781,0.0015992354601621628,-0.5967352390289307,-0.0,0.0
580,11.658803768317739,0.0,-0.0,9.808854103088379,-5.510365781447035e-07,1.274938341566667e-07,-1.2462780807354079e-11,-23.800546646118164,61.24238586425781,0.0016035842709243298,-0.5967352390289307,-0.0,0.0
581,11.668803768094222,0.0,-0.0,9.808857917785645,3.150219924918929e-07,-2.3100338353287952e-07,1.6760148824346288e-11,-23.800546646118164,61.24238586425781,0.001607818529009819,-0.5967352390289307,-0.0,0.0
582,11.678803767870704,0.0,-0.0,9.80809211730957,-5.583158895205997e-07,1.1993654425168643e-07,4.032144410026639e-11,-23.800546646118164,61.24238586425781,0.0016118620987981558,-0.5967352390289307,-0.0,0.0
583,11.688803767647187,0.0,-0.0,9.808855056762695,9.529530871077441e-07,1.292082600912181e-07,-1.5563350608260862e-10,-23.800546646118164,61.24238586425781,0.0016157912323251367,-0.5967352390289307,-0.0,0.0
584,11.69880376742367,0.0,-0.0,9.80809497833252,3.012855813722126e-07,-2.2203212779459136e-07,6.427047782864292e-11,-23.800546646118164,61.24238586425781,0.001619529677554965,-0.5967352390289307,-0.0,0.0
585,11.708803767200152,0.0,-0.0,9.8084716796875,2.9385395805547887e-07,-2.234608160733842e-07,-1.555736095504301e-11,-23.800546646118164,61.24238586425781,0.0016231155022978783,-0.5967352390289307,-0.0,0.0
586,11.718803766976635,0.0,-0.0,9.808477401733398,2.9875369023102394e-07,4.7448494910895533e-07,6.991045936599605e-11,-23.800546646118164,61.24238586425781,0.0016265487065538764,-0.5967352390289307,-0.0,0.0
587,11.728803766753117,0.0,-0.0,9.8084716796875,-5.972074177407194e-07,1.309133352833669e-07,2.5155766358864184e-11,-23.800546646118164,61.24238586425781,0.0016298294067382812,-0.5967352390289307,-0.0,0.0
588,11.7388037665296,0.0,-0.0,9.80809497833252,-6.159566510177683e-07,1.3421771427601925e-07,-4.213068782732421e-11,-23.800546646118164,61.24238586425781,0.0016329193022102118,-0.5967352390289307,-0.0,0.0
589,11.748803766306082,0.0,-0.0,9.80847454071045,1.141517145697435e-06,-5.701247687284194e-07,-2.0735790862147496e-10,-23.800546646118164,61.24238586425781,0.0016358565771952271,-0.5967352390289307,-0.0,0.0
590,11.758803766082565,0.0,-0.0,9.808473587036133,-6.125029017312045e-07,1.2757115541717212e-07,2.726699976918212e-10,-23.800546646118164,61.24238586425781,0.0016386413481086493,-0.5967352390289307,-0.0,0.0
591,11.768803765859047,0.0,-0.0,9.782154083251953,-0.0,-0.0,-0.0,-23.800546646118164,61.24238586425781,0.0016386413481086493,-0.5967352390289307,-0.0,0.0
592,11.77880376563553,0.0,-0.0,9.8100004196167,-8.761210210650461e-07,3.46277204243961e-07,9.682896151552711e-11,-23.800546646118164,61.24238586425781,0.0016386413481086493,-0.5967352390289307,-0.0,0.0
593,11.788803765412013,0.0,-0.0,9.824878692626953,1.5714338275074624e-08,-1.6498578503387762e-08,-1.3991033331883784e-10,-23.800546646118164,61.24238586425781,0.0016401290195062757,-0.5967352390289307,-0.0,0.0
594,11.798803765188495,0.0,-0.0,9.805421829223633,3.6582594731271456e-08,-3.116897673294261e-08,2.7099267274621752e-11,-23.800546646118164,61.24238586425781,0.0016411590622738004,-0.5967352390289307,-0.0,0.0
595,11.808803764964978,0.0,-0.0,9.811145782470703,-8.433005405095173e-07,3.141743434298405e-07,1.0688933071989482e-10,-23.800546646118164,61.24238586425781,0.0016423034248873591,-0.5967352390289307,-0.0,0.0
596,11.81880376474146,0.0,-0.0,9.81114387512207,-8.399411512982624e-07,3.0665231065540866e-07,-3.94657362345896e-11,-23.800546646118164,61.24238586425781,0.0016435622237622738,-0.5967352390289307,-0.0,0.0
597,11.828803764517943,0.0,-0.0,9.81076431274414,6.364388127622078e-08,-5.899839905509907e-08,-1.1117889942013903e-10,-23.800546646118164,61.24238586425781,0.001644897391088307,-0.5967352390289307,-0.0,0.0
598,11.838803764294425,0.0,-0.0,9.810380935668945,9.896394885799964e-07,-4.284893293515779e-07,-6.320284573479995e-11,-23.800546646118164,61.24238586425781,0.0016462707426398993,-0.5967352390289307,-0.0,0.0
599,11.848803764070908,0.0,-0.0,9.810380935668945,-7.332370728363458e-07,2.672728385277878e-07,2.453589831308278e-10,-23.800546646118164,61.24238586425781,0.001647682162001729,-0.5967352390289307,-0.0,0.0
600,11.85880376384739,0.0,-0.0,9.810001373291016,1.3671859733221936e-07,-8.601124790175163e-08,-1.6275270020571497e-10,-23.800546646118164,61.24238586425781,0.0016490935813635588,-0.5967352390289307,-0.0,0.0
601,11.868803763623873,0.0,-0.0,9.8100004196167,1.689787154646183e-06,-9.524399757765423e-08,-8.496980896666173e-11,-23.800546646118164,61.24238586425781,0.0016505050007253885,-0.5967352390289307,-0.0,0.0
602,11.878803763400356,0.0,-0.0,9.809999465942383,1.8126880263480416e-07,-1.0307684306098963e-07,1.8197418572007962e-10,-23.800546646118164,61.24238586425781,0.0016519164200872183,-0.5967352390289307,-0.0,0.0
603,11.888803763176838,0.0,-0.0,9.809619903564453,-7.016087693045847e-07,2.413204640561162e-07,4.624318983292852e-11,-23.800546646118164,61.24238586425781,0.0016532897716388106,-0.5967352390289307,-0.0,0.0
604,11.898803762953321,0.0,-0.0,9.8100004196167,1.8214610975064716e-07,-1.167296304060983e-07,-1.5405482445274288e-10,-23.800546646118164,61.24238586425781,0.0016546630067750812,-0.5967352390289307,-0.0,0.0
605,11.908803762729804,0.0,-0.0,9.809619903564453,2.0605328643341636e-07,-1.3187798231228953e-07,2.3516633085307603e-11,-23.800546646118164,61.24238586425781,0.0016559981741011143,-0.5967352390289307,-0.0,0.0
606,11.918803762506286,0.0,-0.0,9.809236526489258,2.1485666934495384e-07,-1.3849212621153129e-07,8.13799375110058e-12,-23.800546646118164,61.24238586425781,0.0016572570893913507,-0.5967352390289307,-0.0,0.0
607,11.928803762282769,0.0,-0.0,9.8100004196167,2.209473279890517e-07,-1.479255047343031e-07,8.884568428180195e-13,-23.800546646118164,61.24238586425781,0.0016585158882662654,-0.5967352390289307,-0.0,0.0
608,11.938803762059251,0.0,-0.0,9.80923843383789,-6.573378072971536e-07,1.9694307695772295e-07,9.751473933894417e-11,-23.800546646118164,61.24238586425781,0.0016596984351053834,-0.5967352390289307,-0.0,0.0
609,11.948803761835734,0.0,-0.0,9.80961799621582,-6.676650059489475e-07,1.955746569137773e-07,-3.9643927030041937e-11,-23.800546646118164,61.24238586425781,0.001660842914134264,-0.5967352390289307,-0.0,0.0
610,11.958803761612216,0.0,-0.0,9.809619903564453,1.9692789976488712e-07,-1.5585762014325155e-07,-1.0791821603017837e-10,-23.800546646118164,61.24238586425781,0.0016619490925222635,-0.5967352390289307,-0.0,0.0
611,11.968803761388699,0.0,-0.0,9.80961799621582,2.088139723355198e-07,-1.6391282997574308e-07,3.5826230870839026e-11,-23.800546646118164,61.24238586425781,0.0016630172031000257,-0.5967352390289307,-0.0,0.0
612,11.978803761165182,0.0,-0.0,9.79931926727295,-6.743161975464318e-07,1.8049674110898195e-07,1.0794631161159529e-10,-23.800546646118164,61.24238586425781,0.0016630172031000257,-0.5967352390289307,-0.0,0.0
613,11.988803760941664,0.0,-0.0,9.82945442199707,1.9353655034137773e-07,-1.699792306908421e-07,-1.3520007335898754e-10,-23.800546646118164,61.24238586425781,0.0016649627359583974,-0.5967352390289307,-0.0,0.0
614,11.998803760718147,0.0,-0.0,9.790546417236328,1.7388058495271252e-06,-1.72129091424722e-07,-7.553975500673715e-11,-23.800546646118164,61.24238586425781,0.0016649627359583974,-0.5967352390289307,-0.0,0.0
615,12.00880376049463,0.0,-0.0,9.82792854309082,-6.8566708932849e-07,1.8336170626298554e-07,2.845904623072215e-10,-23.800546646118164,61.24238586425781,0.001666755648329854,-0.5967352390289307,-0.0,0.0
616,12.018803760271112,0.0,-0.0,9.792072296142578,1.8787103783779457e-07,-1.7278921404795256e-07,-1.9044962829006806e-10,-23.800546646118164,61.24238586425781,0.001666755648329854,-0.5967352390289307,-0.0,0.0
617,12.028803760047595,0.0,-0.0,9.825641632080078,1.7552797260123043e-07,-1.6948897041402233e-07,1.5107831652372283e-11,-23.800546646118164,61.24238586425781,0.0016683196881785989,-0.5967352390289307,-0.0,0.0
618,12.038803759824077,0.0,-0.0,9.79435920715332,8.323135034515872e-07,1.7986968714467366e-07,-1.3817575555963302e-12,-23.800546646118164,61.24238586425781,0.0016683196881785989,-0.5967352390289307,-0.0,0.0
619,12.04880375960056,0.0,-0.0,9.824115753173828,-6.932156679795298e-07,1.744521824775802e-07,1.3614895322255904e-10,-23.800546646118164,61.24238586425781,0.0016697311075404286,-0.5967352390289307,-0.0,0.0
620,12.058803759377042,0.0,-0.0,9.79588508605957,1.5425257515744306e-07,-1.6988796858186106e-07,-1.58623059132168e-10,-23.800546646118164,61.24238586425781,0.0016697311075404286,-0.5967352390289307,-0.0,0.0
621,12.068803759153525,0.0,-0.0,9.822587966918945,1.5267255548678804e-07,-1.7273360697345197e-07,2.1297685837140534e-11,-23.800546646118164,61.24238586425781,0.0016709899064153433,-0.5967352390289307,-0.0,0.0
622,12.078803758930007,0.0,-0.0,9.797412872314453,1.4967362460538425e-07,-1.7649428230015474e-07,6.8768072833402805e-12,-23.800546646118164,61.24238586425781,0.0016709899064153433,-0.5967352390289307,-0.0,0.0
623,12.08880375870649,0.0,-0.0,9.821062088012695,-7.421892291858967e-07,1.7547030495279614e-07,9.975672371487221e-11,-23.800546646118164,61.24238586425781,0.0016720962012186646,-0.5967352390289307,-0.0,0.0
624,12.098803758482973,0.0,-0.0,9.798938751220703,-7.630314939888194e-07,1.7930702256307995e-07,-3.893102507035451e-11,-23.800546646118164,61.24238586425781,0.0016720962012186646,-0.5967352390289307,-0.0,0.0
625,12.108803758259455,0.0,-0.0,9.8100004196167,1.2843636909565248e-07,-1.6841882199969405e-07,-1.0997645849553095e-10,-23.800546646118164,61.24238586425781,0.0016720962012186646,-0.5967352390289307,-0.0,0.0
626,12.118803758035938,0.0,-0.0,9.82449722290039,1.3786876706944895e-07,-1.6281012449326226e-07,3.8603453766938856e-11,-23.800546646118164,61.24238586425781,0.0016735458048060536,-0.5967352390289307,-0.0,0.0
627,12.12880375781242,0.0,-0.0,9.795503616333008,1.172656993730925e-07,-1.5805207453922776e-07,1.2993633946578598e-11,-23.800546646118164,61.24238586425781,0.0016735458048060536,-0.5967352390289307,-0.0,0.0
628,12.138803757588903,0.0,-0.0,9.8100004196167,-7.905206871328119e-07,1.9771728432260716e-07,1.0117471443971127e-10,-23.800546646118164,61.24238586425781,0.0016735458048060536,-0.5967352390289307,-0.0,0.0
629,12.148803757365386,0.0,-0.0,9.82182502746582,7.683223088861268e-07,2.0594093541603797e-07,-1.462144016972644e-10,-23.800546646118164,61.24238586425781,0.0016747283516451716,-0.5967352390289307,-0.0,0.0
630,12.158803757141868,0.0,-0.0,9.798175811767578,1.0334085942531601e-07,-1.3867492043573293e-07,7.038711280493715e-11,-23.800546646118164,61.24238586425781,0.0016747283516451716,-0.5967352390289307,-0.0,0.0
631,12.16880375691835,0.0,-0.0,9.8100004196167,-8.074946435954189e-07,2.1801056959702692e-07,8.474199120200865e-11,-23.800546646118164,61.24238586425781,0.0016747283516451716,-0.5967352390289307,-0.0,0.0
632,12.178803756694833,0.0,-0.0,9.8100004196167,7.142689923966827e-07,2.1784045145523123e-07,-1.4989529062425788e-10,-23.800546646118164,61.24238586425781,0.0016747283516451716,-0.5967352390289307,-0.0,0.0
633,12.188803756471316,0.0,-0.0,9.8100004196167,-0.0,-0.0,-0.0,-23.800546646118164,61.24238586425781,0.0016747283516451716,-0.5967352390289307,-0.0,0.0
634,12.198803756247798,0.0,-0.0,9.82029914855957,6.9998984386643315e-09,-1.037710006812631e-08,-1.5984599711568737e-12,-23.800546646118164,61.24238586425781,0.0016757582779973745,-0.5967352390289307,-0.0,0.0
635,12.208803756024281,0.0,-0.0,9.799701690673828,-1.5520268403790283e-09,-1.0829259267097768e-08,8.227748994268924e-13,-23.800546646118164,61.24238586425781,0.0016757582779973745,-0.5967352390289307,-0.0,0.0
636,12.218803755800764,0.0,-0.0,9.8100004196167,5.5484647987213975e-09,-1.838097318795917e-08,-1.6210888967999049e-12,-23.800546646118164,61.24238586425781,0.0016757582779973745,-0.5967352390289307,-0.0,0.0
637,12.228803755577246,0.0,-0.0,9.8100004196167,8.866894063430664e-07,-3.722055907928734e-07,-9.776827958329903e-11,-23.800546646118164,61.24238586425781,0.0016757582779973745,-0.5967352390289307,-0.0,0.0
638,12.238803755353729,0.0,-0.0,9.8100004196167,1.1064739346977603e-08,-2.9247766875073467e-08,1.3695258815893396e-10,-23.800546646118164,61.24238586425781,0.0016757582779973745,-0.5967352390289307,-0.0,0.0
639,12.248803755130211,0.0,-0.0,9.8100004196167,-8.85248368831526e-07,3.218066808585718e-07,6.937967561571057e-11,-23.800546646118164,61.24238586425781,0.0016757582779973745,-0.5967352390289307,-0.0,0.0
640,12.258803754906694,0.0,-0.0,9.8100004196167,-6.4912955011209306e-09,-3.4346086863479286e-08,-1.4801596059932365e-10,-23.800546646118164,61.24238586425781,0.0016757582779973745,-0.5967352390289307,-0.0,0.0
641,12.268803754683177,0.0,-0.0,9.8100004196167,-8.963200457401399e-07,3.1570746727993537e-07,1.2573000973681303e-10,-23.800546646118164,61.24238586425781,0.0016757582779973745,-0.5967352390289307,-0.0,0.0
642,12.278803754459659,0.0,-0.0,9.8100004196167,-1.876118638222124e-08,-4.044150259119306e-08,-1.3038395363373922e-10,-23.800546646118164,61.24238586425781,0.0016757582779973745,-0.5967352390289307,-0.0,0.0
643,12.288803754236142,0.0,-0.0,9.820301055908203,8.871154477674281e-07,-3.943445676668489e-07,-6.873281804820053e-11,-23.800546646118164,61.24238586425781,0.0016767883207648993,-0.5967352390289307,-0.0,0.0
644,12.298803754012624,0.0,-0.0,9.799699783325195,2.3100371393525165e-08,-4.4348198002808203e-08,1.4707531026392218e-10,-23.800546646118164,61.24238586425781,0.0016767883207648993,-0.5967352390289307,-0.0,0.0
645,12.308803753789107,0.0,-0.0,9.8100004196167,2.007090671440892e-08,-4.1493198210673654e-08,-2.620917372020415e-11,-23.800546646118164,61.24238586425781,0.0016767883207648993,-0.5967352390289307,-0.0,0.0
646,12.31880375356559,0.0,-0.0,9.8100004196167,1.417573702866548e-08,-4.336375880598098e-08,-8.20596542105978e-12,-23.800546646118164,61.24238586425781,0.0016767883207648993,-0.5967352390289307,-0.0,0.0
647,12.328803753342072,0.0,-0.0,9.8100004196167,-8.69079315179988e-07,3.123485896594502e-07,9.640070686156577e-11,-23.800546646118164,61.24238586425781,0.0016767883207648993,-0.5967352390289307,-0.0,0.0
648,12.338803753118555,0.0,-0.0,9.8100004196167,8.08778111149877e-09,-4.2857589477307556e-08,-1.3875756099679393e-10,-23.800546646118164,61.24238586425781,0.0016767883207648993,-0.5967352390289307,-0.0,0.0
649,12.348803752895037,0.0,-0.0,9.8100004196167,1.5747858697068295e-06,-4.5056875563886933e-08,-7.698112980403238e-11,-23.800546646118164,61.24238586425781,0.0016767883207648993,-0.5967352390289307,-0.0,0.0
650,12.35880375267152,0.0,-0.0,9.8100004196167,-8.337614190168097e-07,3.056880188978539e-07,2.8405505725359603e-10,-23.800546646118164,61.24238586425781,0.0016767883207648993,-0.5967352390289307,-0.0,0.0
651,12.368803752448002,0.0,-0.0,9.8100004196167,-8.508183100275346e-07,3.0479543511319207e-07,-9.066167261373437e-11,-23.800546646118164,61.24238586425781,0.0016767883207648993,-0.5967352390289307,-0.0,0.0
652,12.378803752224485,0.0,-0.0,9.82068157196045,9.1528727352852e-07,-4.0427744352200534e-07,-2.2311277825259879e-10,-23.800546646118164,61.24238586425781,0.0016778564313426614,-0.5967352390289307,-0.0,0.0
653,12.388803752000968,0.0,-0.0,9.79931926727295,4.442992107556165e-08,-6.088175297236376e-08,1.7206326641261427e-10,-23.800546646118164,61.24238586425781,0.0016778564313426614,-0.5967352390289307,-0.0,0.0
654,12.39880375177745,0.0,-0.0,9.8100004196167,4.7667402469642184e-08,-6.98152220479642e-08,-2.025284107087799e-11,-23.800546646118164,61.24238586425781,0.0016778564313426614,-0.5967352390289307,-0.0,0.0
655,12.408803751553933,0.0,-0.0,9.8100004196167,4.3974051067152686e-08,-7.216258524067598e-08,-6.669309202123053e-12,-23.800546646118164,61.24238586425781,0.0016778564313426614,-0.5967352390289307,-0.0,0.0
656,12.418803751330415,0.0,-0.0,9.8100004196167,-8.36651395275112e-07,2.708278543650522e-07,9.527018063337778e-11,-23.800546646118164,61.24238586425781,0.0016778564313426614,-0.5967352390289307,-0.0,0.0
657,12.428803751106898,0.0,-0.0,9.8100004196167,1.574414454807993e-06,-7.706193372314374e-08,-2.4162064016231e-10,-23.800546646118164,61.24238586425781,0.0016778564313426614,-0.5967352390289307,-0.0,0.0
658,12.43880375088338,0.0,-0.0,9.8100004196167,-8.199343710657558e-07,2.679765316315752e-07,3.0153732288873414e-10,-23.800546646118164,61.24238586425781,0.0016778564313426614,-0.5967352390289307,-0.0,0.0
659,12.448803750659863,0.0,-0.0,9.8100004196167,9.215530099027092e-07,-4.372589046397479e-07,-2.7868898855309965e-10,-23.800546646118164,61.24238586425781,0.0016778564313426614,-0.5967352390289307,-0.0,0.0
660,12.458803750436346,0.0,-0.0,9.8100004196167,-8.222824590120581e-07,2.5334657038911246e-07,2.483959704591143e-10,-23.800546646118164,61.24238586425781,0.0016778564313426614,-0.5967352390289307,-0.0,0.0
661,12.468803750212828,0.0,-0.0,9.8100004196167,9.238362395080912e-07,-4.4857023340227897e-07,-2.575301361051885e-10,-23.800546646118164,61.24238586425781,0.0016778564313426614,-0.5967352390289307,-0.0,0.0
662,12.47880374998931,0.0,-0.0,9.8100004196167,-8.239322824010742e-07,2.420462692498404e-07,2.55025917050844e-10,-23.800546646118164,61.24238586425781,0.0016778564313426614,-0.5967352390289307,-0.0,0.0
663,12.488803749765793,0.0,-0.0,9.8100004196167,3.7781429540473255e-08,-1.0839370645499002e-07,-1.5852158474771727e-10,-23.800546646118164,61.24238586425781,0.0016778564313426614,-0.5967352390289307,-0.0,0.0
664,12.498803749542276,0.0,-0.0,9.8100004196167,3.299145134860737e-08,-1.1123103149657254e-07,2.1448065545826012e-11,-23.800546646118164,61.24238586425781,0.0016778564313426614,-0.5967352390289307,-0.0,0.0
665,12.508803749318758,0.0,-0.0,9.8100004196167,-8.492857546116284e-07,2.3270557392152114e-07,1.0391262850184546e-10,-23.800546646118164,61.24238586425781,0.0016778564313426614,-0.5967352390289307,-0.0,0.0
666,12.518803749095241,0.0,-0.0,9.8100004196167,9.96052129664804e-09,-1.1822174883491243e-07,-1.3536741172437416e-10,-23.800546646118164,61.24238586425781,0.0016778564313426614,-0.5967352390289307,-0.0,0.0
667,12.528803748871724,0.0,-0.0,9.820301055908203,1.5507972648265422e-06,-1.2271637217509124e-07,-7.601996115935705e-11,-23.800546646118164,61.24238586425781,0.0016788863576948643,-0.5967352390289307,-0.0,0.0
668,12.538803748648206,0.0,-0.0,9.799699783325195,2.529261955430684e-08,-1.276841601338674e-07,1.8433563009345733e-10,-23.800546646118164,61.24238586425781,0.0016788863576948643,-0.5967352390289307,-0.0,0.0
669,12.548803748424689,0.0,-0.0,9.8100004196167,-8.599335501457972e-07,2.1389287496731413e-07,4.539418840820986e-11,-23.800546646118164,61.24238586425781,0.0016788863576948643,-0.5967352390289307,-0.0,0.0
670,12.558803748201171,0.0,-0.0,9.8100004196167,3.915390234254801e-09,-1.3469278314914845e-07,-1.5201745418025325e-10,-23.800546646118164,61.24238586425781,0.0016788863576948643,-0.5967352390289307,-0.0,0.0
671,12.568803747977654,0.0,-0.0,9.8100004196167,6.434071906369354e-07,2.1892140011914307e-07,2.084478423203251e-11,-23.800546646118164,61.24238586425781,0.0016788863576948643,-0.5967352390289307,-0.0,0.0
672,12.578803747754137,0.0,-0.0,9.8100004196167,-1.2122097103883789e-08,-1.3322971881279955e-07,4.5957807004448625e-11,-23.800546646118164,61.24238586425781,0.0016788863576948643,-0.5967352390289307,-0.0,0.0
673,12.58880374753062,0.0,-0.0,9.8100004196167,-8.939811664276931e-07,2.106725531803022e-07,7.41597686038098e-11,-23.800546646118164,61.24238586425781,0.0016788863576948643,-0.5967352390289307,-0.0,0.0
674,12.598803747307102,0.0,-0.0,9.8100004196167,-3.289451200316762e-08,-1.3837701828833815e-07,-1.430717488926092e-10,-23.800546646118164,61.24238586425781,0.0016788863576948643,-0.5967352390289307,-0.0,0.0
675,12.608803747083584,0.0,-0.0,9.8100004196167,-0.0,-0.0,-0.0,-23.800546646118164,61.24238586425781,0.0016788863576948643,-0.5967352390289307,-0.0,0.0
676,12.618803746860067,0.0,-0.0,9.8100004196167,2.251395070373974e-09,2.3496156131841417e-09,1.022686980673565e-13,-23.800546646118164,61.24238586425781,0.0016788863576948643,-0.5967352390289307,-0.0,0.0
677,12.62880374663655,0.0,-0.0,9.8100004196167,4.512624052210867e-09,4.69941774383642e-09,2.1714577293392712e-13,-23.800546646118164,61.24238586425781,0.0016788863576948643,-0.5967352390289307,-0.0,0.0
678,12.638803746413032,0.0,-0.0,9.8100004196167,6.775315863905007e-09,7.049213657239761e-09,2.4587856707267153e-13,-23.800546646118164,61.24238586425781,0.0016788863576948643,-0.5967352390289307,-0.0,0.0
679,12.648803746189515,0.0,-0.0,9.8100004196167,9.038156001395237e-09,9.39901756424888e-09,2.5129776189646014e-13,-23.800546646118164,61.24238586425781,0.0016788863576948643,-0.5967352390289307,-0.0,0.0
680,12.658803745965997,0.0,-0.0,9.8100004196167,1.1301047209144599e-08,1.1748818806722738e-08,2.522007938859233e-13,-23.800546646118164,61.24238586425781,0.0016788863576948643,-0.5967352390289307,-0.0,0.0
681,12.66880374574248,0.0,-0.0,9.8100004196167,1.356391354789821e-08,1.4098620937375017e-08,2.523134967017532e-13,-23.800546646118164,61.24238586425781,0.0016788863576948643,-0.5967352390289307,-0.0,0.0
682,12.678803745518962,0.0,-0.0,9.8100004196167,1.5826776333938142e-08,1.6448423068027296e-08,2.523339068076502e-13,-23.800546646118164,61.24238586425781,0.0016788863576948643,-0.5967352390289307,-0.0,0.0
683,12.688803745295445,0.0,-0.0,9.8100004196167,-6.203232487678179e-07,-3.329569153720513e-07,5.337264050858659e-12,-23.800546646118164,61.24238586425781,0.0016788863576948643,-0.5967352390289307,-0.0,0.0
684,12.698803745071928,0.0,-0.0,9.8100004196167,5.485402709837217e-08,1.7737173507725856e-08,-3.9117653560794e-11,-23.800546646118164,61.24238586425781,0.0016788863576948643,-0.5967352390289307,-0.0,0.0
685,12.70880374484841,0.0,-0.0,9.8100004196167,8.537475792991245e-08,2.0526520927433012e-08,2.3602998028282585e-11,-23.800546646118164,61.24238586425781,0.0016788863576948643,-0.5967352390289307,-0.0,0.0
686,12.718803744624893,0.0,-0.0,9.8100004196167,1.1382228137790662e-07,2.328935622131212e-08,6.796443616230441e-12,-23.800546646118164,61.24238586425781,0.0016788863576948643,-0.5967352390289307,-0.0,0.0
687,12.728803744401375,0.0,-0.0,9.8100004196167,1.2939757709773403e-07,3.173161644554057e-08,2.9294210286689992e-12,-23.800546646118164,61.24238586425781,0.0016788863576948643,-0.5967352390289307,-0.0,0.0
688,12.738803744177858,0.0,-0.0,9.8100004196167,1.4487464738976996e-07,4.0174320758978865e-08,1.2842486405914566e-12,-23.800546646118164,61.24238586425781,0.0016788863576948643,-0.5967352390289307,-0.0,0.0
689,12.74880374395434,0.0,-0.0,9.8100004196167,-1.376667569275014e-06,4.319054625057106e-08,1.0438413328150986e-10,-23.800546646118164,61.24238586425781,0.0016788863576948643,-0.5967352390289307,-0.0,0.0
690,12.758803743730823,0.0,-0.0,9.8100004196167,-1.3575923958342173e-06,4.407521814187021e-08,-7.306472094015248e-11,-23.800546646118164,61.24238586425781,0.0016788863576948643,-0.5967352390289307,-0.0,0.0
691,12.768803743507306,0.0,-0.0,9.8100004196167,-4.448912420684792e-07,3.980252643032145e-07,-4.1345850354534974e-11,-23.800546646118164,61.24238586425781,0.0016788863576948643,-0.5967352390289307,-0.0,0.0
692,12.778803743283788,0.0,-0.0,9.8100004196167,-4.153980910359678e-07,-3.042020750854135e-07,-3.6805912484449976e-11,-23.800546646118164,61.24238586425781,0.0016788863576948643,-0.5967352390289307,-0.0,0.0
693,12.78880374306027,0.0,-0.0,9.8100004196167,-3.622255349000625e-07,-3.029670949672436e-07,6.161932075698928e-12,-23.800546646118164,61.24238586425781,0.0016788863576948643,-0.5967352390289307,-0.0,0.0
694,12.798803742836753,0.0,-0.0,9.8100004196167,1.2037301075906726e-06,-3.032590996099316e-07,-1.0120915910905026e-10,-23.800546646118164,61.24238586425781,0.0016788863576948643,-0.5967352390289307,-0.0,0.0
695,12.808803742613236,0.0,-0.0,9.8100004196167,1.2417078778526047e-06,-3.0238990689213097e-07,7.281521219315579e-11,-23.800546646118164,61.24238586425781,0.0016788863576948643,-0.5967352390289307,-0.0,0.0
696,12.818803742389719,0.0,-0.0,9.8100004196167,3.863140705107071e-07,5.090732813073373e-08,1.1761960849732134e-10,-23.800546646118164,61.24238586425781,0.0016788863576948643,-0.5967352390289307,-0.0,0.0
697,12.828803742166201,0.0,-0.0,9.8100004196167,3.980861436048144e-07,5.8908820932401795e-08,-3.5016253785435936e-11,-23.800546646118164,61.24238586425781,0.0016788863576948643,-0.5967352390289307,-0.0,0.0
698,12.838803741942684,0.0,-0.0,9.8100004196167,4.1406539708077617e-07,6.6878634186196e-08,-9.496301314748656e-12,-23.800546646118164,61.24238586425781,0.0016788863576948643,-0.5967352390289307,-0.0,0.0
699,12.848803741719166,0.0,-0.0,9.8100004196167,4.3050206954831083e-07,7.484789676936998e-08,-1.1975108404893575e-12,-23.800546646118164,61.24238586425781,0.0016788863576948643,-0.5967352390289307,-0.0,0.0
700,12.858803741495649,0.0,-0.0,9.8100004196167,4.4700468038172403e-07,8.281719487968076e-08,4.631737701710215e-13,-23.800546646118164,61.24238586425781,0.0016788863576948643,-0.5967352390289307,-0.0,0.0
701,12.868803741272131,0.0,-0.0,9.8100004196167,4.635167272226681e-07,9.078649298999153e-08,7.515633081156547e-13,-23.800546646118164,61.24238586425781,0.0016788863576948643,-0.5967352390289307,-0.0,0.0
702,12.878803741048614,0.0,-0.0,9.8100004196167,-1.8199081353031943e-07,-2.543581558711594e-07,7.337846476274112e-12,-23.800546646118164,61.24238586425781,0.0016788863576948643,-0.5967352390289307,-0.0,0.0
703,12.888803740825097,0.0,-0.0,9.8100004196167,4.804712148143153e-07,9.966206704348224e-08,-3.8116339945437616e-11,-23.800546646118164,61.24238586425781,0.0016788863576948643,-0.5967352390289307,-0.0,0.0
704,12.89880374060158,0.0,-0.0,9.8100004196167,-1.7092943949137407e-07,-2.4025570155572495e-07,3.194478362389397e-11,-23.800546646118164,61.24238586425781,0.0016788863576948643,-0.5967352390289307,-0.0,0.0
705,12.908803740378062,0.0,-0.0,9.8100004196167,4.835305844608229e-07,1.1896545970557781e-07,-3.0730477190710204e-11,-23.800546646118164,61.24238586425781,0.0016788863576948643,-0.5967352390289307,-0.0,0.0
706,12.918803740154544,0.0,-0.0,9.8100004196167,-1.678612733257978e-07,-2.2095183282999642e-07,3.276916932248852e-11,-23.800546646118164,61.24238586425781,0.0016788863576948643,-0.5967352390289307,-0.0,0.0
707,12.928803739931027,0.0,-0.0,9.8100004196167,-1.0554432492426713e-06,1.3944786303454748e-07,7.388122058582525e-11,-23.800546646118164,61.24238586425781,0.0016788863576948643,-0.5967352390289307,-0.0,0.0
708,12.93880373970751,0.0,-0.0,9.8100004196167,-1.0526800906518474e-06,1.5170675737863348e-07,-4.6416967491857974e-11,-23.800546646118164,61.24238586425781,0.0016788863576948643,-0.5967352390289307,-0.0,0.0
709,12.948803739483992,0.0,-0.0,9.8100004196167,-1.034758042806061e-06,1.5825924037926598e-07,-1.2571957364038155e-11,-23.800546646118164,61.24238586425781,0.0016788863576948643,-0.5967352390289307,-0.0,0.0
710,12.958803739260475,0.0,-0.0,9.8100004196167,-1.0058248562927474e-06,1.591353679941676e-07,-3.219939939680394e-12,-23.800546646118164,61.24238586425781,0.0016788863576948643,-0.5967352390289307,-0.0,0.0
711,12.968803739036957,0.0,-0.0,9.8100004196167,-8.89849616214633e-08,5.121367507854302e-07,-2.255866674016893e-11,-23.800546646118164,61.24238586425781,0.0016788863576948643,-0.5967352390289307,-0.0,0.0
712,12.97880373881344,0.0,-0.0,9.8100004196167,-9.285477631237882e-07,1.6653181944548123e-07,6.449684536447009e-11,-23.800546646118164,61.24238586425781,0.0016788863576948643,-0.5967352390289307,-0.0,0.0
713,12.988803738589922,0.0,-0.0,9.8100004196167,-2.3262977322247025e-07,-1.906695814568593e-07,-1.1539690036865835e-10,-23.800546646118164,61.24238586425781,0.0016788863576948643,-0.5967352390289307,-0.0,0.0
714,12.998803738366405,0.0,-0.0,9.8100004196167,4.179582191454756e-08,-1.9085287306097598e-07,4.720855650841571e-12,-23.800546646118164,61.24238586425781,0.0016788863576948643,-0.5967352390289307,-0.0,0.0
715,13.008803738142888,0.0,-0.0,9.8100004196167,9.265187372875516e-08,-1.895538872531688e-07,1.668216953465418e-11,-23.800546646118164,61.24238586425781,0.0016788863576948643,-0.5967352390289307,-0.0,0.0
716,13.01880373791937,0.0,-0.0,9.8100004196167,1.3087979766623903e-07,-1.8257593126236316e-07,5.339778966217956e-12,-23.800546646118164,61.24238586425781,0.0016788863576948643,-0.5967352390289307,-0.0,0.0
717,13.028803737695853,0.0,-0.0,9.8100004196167,-0.0,-0.0,-0.0,-23.800546646118164,61.24238586425781,0.0016788863576948643,-0.5967352390289307,-0.0,0.0
718,13.038803737472335,0.0,-0.0,9.8100004196167,3.778604096282834e-08,6.977789013262736e-09,-1.801296091452631e-12,-23.800546646118164,61.24238586425781,0.0016788863576948643,-0.5967352390289307,-0.0,0.0
719,13.048803737248818,0.0,-0.0,9.8100004196167,7.573747495825955e-08,1.3956124256253588e-08,4.715954189660199e-15,-23.800546646118164,61.24238586425781,0.0016788863576948643,-0.5967352390289307,-0.0,0.0
720,13.0588037370253,0.0,-0.0,9.8100004196167,1.1371278674232599e-07,2.093449147366755e-08,4.810891268691719e-13,-23.800546646118164,61.24238586425781,0.0016788863576948643,-0.5967352390289307,-0.0,0.0
721,13.068803736801783,0.0,-0.0,9.8100004196167,1.4018854699315852e-07,3.359069467023801e-08,1.9659163619928366e-12,-23.800546646118164,61.24238586425781,0.0016788863576948643,-0.5967352390289307,-0.0,0.0
722,13.078803736578266,0.0,-0.0,9.8100004196167,1.66614412933086e-07,4.6247379259511945e-08,1.4606376004533406e-12,-23.800546646118164,61.24238586425781,0.0016788863576948643,-0.5967352390289307,-0.0,0.0
723,13.088803736354748,0.0,-0.0,9.8100004196167,1.9303315923480113e-07,5.890404608521749e-08,1.3190366767584782e-12,-23.800546646118164,61.24238586425781,0.0016788863576948643,-0.5967352390289307,-0.0,0.0
724,13.09880373613123,0.0,-0.0,9.8100004196167,2.0527255628621788e-07,6.594174095653216e-08,1.6419063374531473e-12,-23.800546646118164,61.24238586425781,0.0016788863576948643,-0.5967352390289307,-0.0,0.0
725,13.108803735907713,0.0,-0.0,9.8100004196167,2.05411666343025e-07,6.73550601959505e-08,1.1539536687310559e-12,-23.800546646118164,61.24238586425781,0.0016788863576948643,-0.5967352390289307,-0.0,0.0
726,13.118803735684196,0.0,-0.0,9.8100004196167,2.0548910129036813e-07,6.876787495002645e-08,3.8541744665568367e-13,-23.800546646118164,61.24238586425781,0.0016788863576948643,-0.5967352390289307,-0.0,0.0
727,13.128803735460679,0.23997129499912262,0.0025019091553986073,9.82068157196045,1.0786919119709637e-05,-0.0001480722421547398,0.00039977056439965963,-23.800521850585938,61.24238586425781,0.0016799544682726264,-0.5965093374252319,9.56226431299001e-05,1.9261709894635715e-05
728,13.138803735237161,27.222932815551758,-0.07664147019386292,9.56054401397705,-2.387621861998923e-06,0.007055838592350483,0.0001751046656863764,-23.797775268554688,61.24235153198242,0.0016562652308493853,-0.5964089632034302,-0.003961509559303522,1.789028465282172e-05
729,13.148803735013644,26.002029418945312,0.11062605679035187,9.657983779907227,-3.36545895152085e-06,0.011426973156630993,8.563797746319324e-05,-23.792428970336914,61.2422981262207,0.0016178512014448643,-0.5963599681854248,-0.010511660948395729,1.595578396518249e-05
730,13.158803734790126,24.405176162719727,-0.0660310909152031,9.705525398254395,-2.755250534391962e-06,0.014300388284027576,5.054028588347137e-05,-23.784643173217773,61.24221420288086,0.001569785992614925,-0.596331000328064,-0.018694227561354637,1.4369703421834856e-05
731,13.168803734566609,21.34522247314453,0.06210526451468468,9.756974220275879,-8.258660386673e-07,0.015620382502675056,3.313676643301733e-05,-23.774723052978516,61.24211120605469,0.001517448341473937,-0.5963116884231567,-0.027655433863401413,1.3888829926145263e-05
732,13.178803734343091,19.62773323059082,-0.03579533100128174,9.778290748596191,-1.0815566611199756e-06,0.016126489266753197,2.0828678316320293e-05,-23.762842178344727,61.24198913574219,0.0014632033417001367,-0.5962997078895569,-0.036889851093292236,1.326237543253228e-05
733,13.188803734119574,11.628379821777344,0.0009384963195770979,9.864567756652832,-1.7635752556088846e-06,0.01424496527761221,1.5932238966342993e-05,-23.74979591369629,61.24185562133789,0.0014153289375826716,-0.5962905883789062,-0.045051924884319305,1.2245380275999196e-05
734,13.198803733896057,19.410181045532227,0.001908881007693708,9.767424583435059,-7.59364013447339e-07,0.014965198002755642,3.8816424421384e-06,-23.734813690185547,61.24169921875,0.0013650130713358521,-0.5962885618209839,-0.05362381041049957,1.1808333510998636e-05
735,13.20880373367254,15.351840019226074,-0.04034401476383209,9.82398796081543,1.6360750123567414e-06,0.014105981215834618,3.608396127674496e-06,-23.71829605102539,61.24152374267578,0.0013177490327507257,-0.5962862372398376,-0.06171075627207756,1.2743714250973426e-05
736,13.218803733449022,12.852413177490234,0.013633647002279758,9.839923858642578,5.616625458060298e-07,0.012725031934678555,5.051215794082964e-06,-23.70049285888672,61.241336822509766,0.001275024376809597,-0.596283495426178,-0.06900539994239807,1.3062135622021742e-05
737,13.228803733225504,12.793543815612793,0.01300886645913124,9.832798957824707,8.245067988355004e-07,0.011543440632522106,3.055788283745642e-06,-23.681413650512695,61.24113464355469,0.0012362670386210084,-0.5962815880775452,-0.0756101906299591,1.353245897917077e-05
738,13.238803733001987,7.013980865478516,0.03285254165530205,9.882516860961914,6.920622013240063e-07,0.00906115397810936,4.051347332278965e-06,-23.661632537841797,61.24093246459961,0.0012057494604960084,-0.5962794423103333,-0.08080113679170609,1.3925711755291559e-05
739,13.24880373277847,11.835700988769531,-0.03697916120290756,9.816746711730957,3.8304466443150886e-07,0.00833265669643879,-6.499583832919598e-06,-23.640670776367188,61.2407112121582,0.0011776733445003629,-0.5962830185890198,-0.08558226376771927,1.4150594324746635e-05
740,13.258803732554952,6.655431270599365,0.02910923771560192,9.864876747131348,5.204066724218137e-07,0.0064037861302495,-3.9811700844438747e-05,-23.61904525756836,61.24048614501953,0.001156120328232646,-0.5963059663772583,-0.08925008028745651,1.4483423910860438e-05
741,13.268803732331435,9.696585655212402,-0.01925012469291687,9.825270652770996,-2.416383892978047e-07,0.0055252015590667725,1.936425906023942e-05,-23.596452713012695,61.24025344848633,0.0011376570910215378,-0.5962947010993958,-0.09241928160190582,1.4327460121421609e-05
742,13.278803732107917,6.195957183837891,0.0643136203289032,9.84706974029541,6.481025707216759e-07,0.004066432826220989,7.920351345092058e-05,-23.573238372802734,61.240013122558594,0.0011239242739975452,-0.596249520778656,-0.09474837779998779,1.4624488358094823e-05
743,13.2888037318844,7.897810459136963,-0.07798299938440323,9.826839447021484,-5.146518446963455e-07,0.0031698422972112894,-5.105854870635085e-05,-23.549240112304688,61.23976516723633,0.0011132049839943647,-0.5962785482406616,-0.09655837714672089,1.437852915842086e-05
744,13.298803731660882,5.996468544006348,0.06224314868450165,9.834113121032715,-1.4531775605064468e-06,0.0021478976123034954,-0.00013204762944951653,-23.524641036987305,61.23950958251953,0.0011059188982471824,-0.5963544845581055,-0.09778781235218048,1.3674310139322188e-05
745,13.308803731437365,6.757798194885254,-0.04984234273433685,9.825089454650879,1.6050742033257848e-06,0.0013738840352743864,3.4771674108924344e-05,-23.49936866760254,61.2392463684082,0.0011013030307367444,-0.5963345766067505,-0.09858011454343796,1.4559768715116661e-05
746,13.318803731213848,5.337099552154541,0.015369510278105736,9.828269004821777,2.2786942110997188e-07,0.0005453835474327207,8.867210999596864e-05,-23.47356605529785,61.23897933959961,0.0010994338663294911,-0.5962836742401123,-0.09889430552721024,1.4602655937778763e-05
747,13.32880373099033,6.15703821182251,0.02390318736433983,9.817699432373047,-2.02786480940631e-07,-3.6512022916213027e-07,-2.3451424567610957e-05,-23.447147369384766,61.238704681396484,0.001099395682103932,-0.5962836742401123,-0.09889430552721024,1.4602655937778763e-05
748,13.338803730766813,4.677478790283203,-0.031493425369262695,9.825242042541504,-1.436864636161772e-06,-0.0006768145831301808,-5.4196374549064785e-05,-23.420263290405273,61.238426208496094,0.0011016845237463713,-0.5963279604911804,-0.09850498288869858,1.3740022950514685e-05
749,13.348803730543295,5.717299461364746,-0.02066873572766781,9.812832832336426,1.429758412996307e-06,-0.0010553525062277913,-9.232508091372438e-06,-23.39280891418457,61.23814010620117,0.0011052321642637253,-0.5963335633277893,-0.09790392965078354,1.4568210644938517e-05
750,13.358803730319778,4.2364020347595215,0.043923329561948776,9.820390701293945,5.579372697184226e-08,-0.0015773815102875233,1.5540751974185696e-06,-23.364933013916016,61.237850189208984,0.0011105346493422985,-0.5963325500488281,-0.096995510160923,1.4598695088352542e-05
751,13.36880373009626,5.21740198135376,-0.06587012857198715,9.80966854095459,-1.0054777703771833e-06,-0.0018253234447911382,-1.0153953553526662e-05,-23.336538314819336,61.237552642822266,0.0011166762560606003,-0.596338152885437,-0.09595049172639847,1.4032411854714155e-05
752,13.378803729872743,3.8956003189086914,0.0803833082318306,9.816546440124512,5.375371969762455e-08,-0.0022233910858631134,-1.2465749023249373e-05,-23.30775260925293,61.23725509643555,0.0011241149622946978,-0.5963454842567444,-0.09468007832765579,1.4075142644287553e-05
753,13.388803729649226,4.876549243927002,-0.02940978854894638,9.80741024017334,-1.3891660444187437e-07,-0.002362927421927452,-1.1900587196578272e-05,-23.27848243713379,61.2369499206543,0.0011320876656100154,-0.5963522791862488,-0.09332086890935898,1.4006824130774476e-05
754,13.398803729425708,3.6159441471099854,-0.0025257873348891735,9.811469078063965,-2.742194169513823e-07,-0.0026623352896422148,-1.1748384167731274e-05,-23.24885368347168,61.23664474487305,0.0011407851707190275,-0.5963590741157532,-0.09179090708494186,1.3860602848581038e-05
755,13.40880372920219,4.515623569488525,0.006842200178653002,9.807478904724121,-3.237071553030546e-07,-0.002716214396059513,-1.3175143067201134e-05,-23.218774795532227,61.236331939697266,0.0011499404208734632,-0.5963667035102844,-0.09023362398147583,1.3687075806956273e-05
756,13.418803728978673,3.395402669906616,-0.0048147449269890785,9.81163215637207,-4.5036202322989993e-07,-0.002937512705102563,-1.4109463336353656e-05,-23.188356399536133,61.23601531982422,0.0011597824050113559,-0.5963748693466187,-0.08856023102998734,1.344158317806432e-05
757,13.428803728755156,4.295470714569092,-0.03544445335865021,9.803495407104492,-1.3224090480434825e-06,-0.002924154046922922,-1.3904852494306397e-05,-23.157508850097656,61.23569107055664,0.0011696242727339268,-0.5963826775550842,-0.08687999844551086,1.26962495414773e-05
758,13.438803728531639,3.174407958984375,0.032893821597099304,9.810636520385742,-9.871314432530198e-07,-0.003085274249315262,-1.2543800039566122e-05,-23.126346588134766,61.2353630065918,0.0011800002539530396,-0.5963899493217468,-0.08512464165687561,1.214135318150511e-05
759,13.448803728308121,4.094462871551514,0.0024726593401283026,9.801764488220215,1.7840089867604547e-06,-0.0030206693336367607,-1.0344755537516903e-05,-23.094778060913086,61.23503875732422,0.0011901473626494408,-0.59639573097229,-0.08337611705064774,1.3172222679713741e-05
760,13.458803728084604,3.0142252445220947,-0.008768475614488125,9.809531211853027,6.186258474372153e-07,-0.003134980797767639,-1.2863754818681628e-05,-23.06290626525879,61.23470687866211,0.0012006759643554688,-0.5964032411575317,-0.08158660680055618,1.3537307495425921e-05
761,13.468803727861086,3.933866500854492,0.0008082585409283638,9.80147647857666,-2.4921229169194703e-07,-0.003032035892829299,-1.2299407899263315e-05,-23.03064727783203,61.23436737060547,0.0012108993250876665,-0.5964100956916809,-0.07984490692615509,1.3404373021330684e-05
762,13.478803727637569,2.873627185821533,-0.010225002653896809,9.808382034301758,1.023339677885815e-06,-0.0031121601350605488,-1.0825840035977308e-05,-22.998098373413086,61.234031677246094,0.001221351558342576,-0.5964164137840271,-0.07806222885847092,1.3999315342516638e-05
763,13.488803727414052,3.7728617191314697,0.039141613990068436,9.800786972045898,9.088498131859524e-08,-0.00298062595538795,-1.2295847227505874e-05,-22.965173721313477,61.23368835449219,0.0012313842307776213,-0.596423327922821,-0.0763615071773529,1.4060857211006805e-05
764,13.498803727190534,2.8134567737579346,-0.05084652453660965,9.807870864868164,1.768059519235976e-06,-0.0030354137998074293,-1.206005981657654e-05,-22.931970596313477,61.23334503173828,0.0012415695236995816,-0.5964301824569702,-0.07461981475353241,1.5083051039255224e-05
765,13.508803726967017,3.632701873779297,-0.0023124299477785826,9.799659729003906,5.7208850989809434e-09,-0.0028833788819611073,-1.3060986020718701e-05,-22.89840316772461,61.23299026489258,0.0012511825188994408,-0.5964379906654358,-0.07296007871627808,1.5095948583621066e-05
766,13.5188037267435,2.7120635509490967,0.02810891903936863,9.81082820892334,-1.156284810122088e-07,-0.00291995401494205,-1.400900691805873e-05,-22.864566802978516,61.23263931274414,0.001261215191334486,-0.5964458584785461,-0.07129351049661636,1.5039771824376658e-05
767,13.528803726519982,3.552147388458252,-0.0031442404724657536,9.796529769897461,-4.445610457537441e-08,-0.0027558018919080496,-1.320586943620583e-05,-22.83037757873535,61.23228454589844,0.0012703322572633624,-0.5964536666870117,-0.06971573829650879,1.5023696505522821e-05
768,13.538803726296464,2.611523389816284,0.02706862986087799,9.809575080871582,2.2356207551865737e-08,-0.0027807559818029404,-1.3006937479076441e-05,-22.795927047729492,61.23192596435547,0.0012797164963558316,-0.5964609980583191,-0.06811746954917908,1.504542615293758e-05
769,13.548803726072947,3.4716274738311768,-0.003976056352257729,9.799863815307617,8.803907576293568e-07,-0.0026073625776916742,-1.2822642020182684e-05,-22.761133193969727,61.2315673828125,0.0012884902535006404,-0.5964682698249817,-0.06662849336862564,1.5558474842691794e-05
770,13.55880372584943,2.5718438625335693,-0.05334267392754555,9.807847023010254,-2.586358789358201e-07,-0.002623380161821842,-1.4211218513082713e-05,-22.726078033447266,61.231201171875,0.0012973403790965676,-0.596476674079895,-0.06512585282325745,1.5419680494233035e-05
771,13.568803725625912,3.4107182025909424,0.03539803624153137,9.800492286682129,-3.525985903252149e-07,-0.0024459625128656626,-1.2920744666189421e-05,-22.69068717956543,61.23082733154297,0.0013056182069703937,-0.5964839458465576,-0.06372565776109695,1.5226038158289157e-05
772,13.578803725402395,2.510948419570923,-0.01396890264004469,9.807275772094727,2.1910649650180858e-07,-0.002458515577018261,-9.823356776905712e-06,-22.655046463012695,61.2304573059082,0.0013138961512595415,-0.5964894890785217,-0.0623118132352829,1.5357773008872755e-05
773,13.588803725178877,3.310675859451294,-0.005640129558742046,9.800375938415527,3.646282777935994e-07,-0.002280015032738447,-9.963343472918496e-06,-22.61907386779785,61.23008346557617,0.0013215637300163507,-0.5964952111244202,-0.061014074832201004,1.557272844365798e-05
774,13.59880372495536,2.510084390640259,0.026029419153928757,9.807772636413574,-5.617575311589462e-07,-0.0022895699366927147,-1.0456460586283356e-05,-22.58285140991211,61.229705810546875,0.0013292693765833974,-0.5965011715888977,-0.05969585105776787,1.5257251106959302e-05
775,13.608803724731843,3.2702457904815674,-0.006056010257452726,9.80056381225586,-3.2742687494646816e-07,-0.002111653098836541,-8.736826202948578e-06,-22.546302795410156,61.22932434082031,0.0013363647740334272,-0.5965062379837036,-0.058486904948949814,1.5074812836246565e-05
776,13.618803724508325,2.510502338409424,-0.053965769708156586,9.807877540588379,6.594490855604818e-07,-0.002120141638442874,-8.426703061559238e-06,-22.509506225585938,61.228939056396484,0.0013434982392936945,-0.5965112447738647,-0.05727113410830498,1.545753730169963e-05
777,13.628803724284808,3.189018726348877,0.07310743629932404,9.800774574279785,8.421191637353331e-07,-0.0019460259936749935,-7.240579179779161e-06,-22.472389221191406,61.228553771972656,0.0013500213390216231,-0.5965152382850647,-0.05615781247615814,1.5944167898851447e-05
778,13.63880372406129,2.4501240253448486,-0.05458998307585716,9.808796882629395,-1.1609301253656668e-07,-0.001954388804733753,-7.865664883865975e-06,-22.435028076171875,61.2281608581543,0.0013566588750109076,-0.596519947052002,-0.055037662386894226,1.5882131265243515e-05
779,13.648803723837773,3.189067840576172,0.033109985291957855,9.80051326751709,-4.925548182654893e-07,-0.001782833831384778,-5.848226919624722e-06,-22.397350311279297,61.2277717590332,0.0013626479776576161,-0.5965231657028198,-0.05401313304901123,1.5603105566697195e-05
780,13.658803723614255,2.4693548679351807,-0.014383642002940178,9.808103561401367,1.5667441743971722e-07,-0.0017955772345885634,-7.451565579685848e-06,-22.35942840576172,61.22737503051758,0.001368675148114562,-0.5965273380279541,-0.052988603711128235,1.5696876289439388e-05
781,13.668803723390738,3.129153251647949,-0.007512063719332218,9.801820755004883,5.4577178332237963e-08,-0.0016309748170897365,-6.316194230748806e-06,-22.321191787719727,61.22697448730469,0.0013741683214902878,-0.5965310335159302,-0.05205287039279938,1.573147892486304e-05
782,13.67880372316722,2.4286179542541504,0.025198057293891907,9.808218955993652,2.5219833332812414e-07,-0.001652799895964563,-5.3978333198756445e-06,-22.28271484375,61.2265739440918,0.0013796996790915728,-0.5965341329574585,-0.05110347270965576,1.587874248798471e-05
783,13.688803722943703,3.02885103225708,-0.00855281949043274,9.802390098571777,2.4321226987922273e-07,-0.0014969707699492574,-5.180717835173709e-06,-22.243932723999023,61.22616958618164,0.001384735107421875,-0.5965370535850525,-0.050249699503183365,1.6020741895772517e-05
784,13.698803722720186,2.4483225345611572,0.02540658414363861,9.808656692504883,2.9666742307199456e-07,-0.0015200049383565784,-5.1022088882746175e-06,-22.20490837097168,61.225765228271484,0.0013898467877879739,-0.5965399146080017,-0.04938226565718651,1.6193278497667052e-05
785,13.708803722496668,3.008984327316284,-0.048758506774902344,9.802494049072266,1.1820869616485652e-07,-0.001374188344925642,-5.76174124944373e-06,-22.165584564208984,61.2253532409668,0.00139446253888309,-0.5965433120727539,-0.04858996346592903,1.6263835277641192e-05
786,13.718803722273151,2.4076356887817383,0.06498825550079346,9.808757781982422,3.1705795322523045e-07,-0.0013985406840220094,-4.7428075049538165e-06,-22.126022338867188,61.224945068359375,0.0013991546584293246,-0.5965459942817688,-0.047790832817554474,1.6447784219053574e-05
787,13.728803722049634,2.9687252044677734,-0.04917452484369278,9.802987098693848,8.691926609571965e-07,-0.001259312848560512,-6.276302428886993e-06,-22.086162567138672,61.22452926635742,0.001403388916514814,-0.5965495705604553,-0.04706000164151192,1.6948642951319925e-05
788,13.738803721826116,2.408216953277588,-0.015007086098194122,9.806913375854492,-6.353247385959548e-07,-0.00128447194583714,-6.009034677845193e-06,-22.046062469482422,61.2241096496582,0.0014075088547542691,-0.5965531468391418,-0.04632917046546936,1.6587517166044563e-05
789,13.748803721602599,2.947657346725464,0.030613113194704056,9.80765438079834,-4.7614724962841137e-07,-0.001152977580204606,-4.7173421080515254e-06,-22.00566864013672,61.223690032958984,0.0014116286765784025,-0.5965557098388672,-0.045659810304641724,1.63168824656168e-05
790,13.758803721379081,2.347989320755005,-0.01563149131834507,9.804727554321289,9.75982516138174e-07,-0.001179215731099248,-5.3868348004471045e-06,-21.965038299560547,61.2232666015625,0.0014154051896184683,-0.5965589880943298,-0.044990453869104385,1.687851363385562e-05
791,13.768803721155564,2.9478564262390137,-0.009384313598275185,9.807720184326172,9.444108428624531e-08,-0.001053945510648191,-4.8871875151235145e-06,-21.924118041992188,61.22283935546875,0.0014191818190738559,-0.5965614914894104,-0.04438939690589905,1.69347786140861e-05
792,13.778803720932046,2.347364664077759,0.024366581812500954,9.804774284362793,1.604412744882211e-07,-0.001079877489246428,-4.523258212429937e-06,-21.88296127319336,61.222412109375,0.001422615023329854,-0.5965642929077148,-0.04377467930316925,1.7028734873747453e-05
793,13.788803720708529,2.8872435092926025,0.02998901903629303,9.808208465576172,-8.726359510546899e-07,-0.0009631240391172469,-4.880856522504473e-06,-21.84151840209961,61.221981048583984,0.0014260864118114114,-0.5965670943260193,-0.04322143644094467,1.6530873836018145e-05
794,13.798803720485012,2.3880038261413574,-0.05521245300769806,9.804791450500488,-1.1752961626143588e-07,-0.0009865114698186517,-5.518872512766393e-06,-21.799835205078125,61.2215461730957,0.0014292144915089011,-0.5965704321861267,-0.042654529213905334,1.6465892258565873e-05
795,13.808803720261494,2.8074793815612793,-0.010841473937034607,9.806411743164062,-1.8516541899771255e-07,-0.0008811467560008168,-5.3952940106682945e-06,-21.75787353515625,61.221107482910156,0.0014321899507194757,-0.596573531627655,-0.042149096727371216,1.63621280080406e-05
796,13.818803720037977,2.4469964504241943,0.025408150628209114,9.808987617492676,1.4249976754143745e-09,-0.0008997913100756705,-4.271219040674623e-06,-21.715667724609375,61.22066879272461,0.001435241661965847,-0.5965760350227356,-0.04163683205842972,1.636471824895125e-05
797,13.82880371981446,2.7273151874542236,-0.011674212291836739,9.804610252380371,1.0588755117169057e-07,-0.0008098426624201238,-3.3289102248090785e-06,-21.67319107055664,61.22022247314453,0.0014379500644281507,-0.5965779423713684,-0.04117237776517868,1.642675488255918e-05
798,13.838803719590942,2.446835994720459,0.02540840208530426,9.808645248413086,1.3229843034423538e-06,-0.0008183667086996138,-1.411631160408433e-06,-21.630468368530273,61.21977996826172,0.0014406966511160135,-0.5965785980224609,-0.04070109501481056,1.718536441330798e-05
799,13.848803719367424,2.7071640491485596,-0.011882327497005463,9.80580997467041,-1.153641960627283e-06,-0.0007453239522874355,-2.8430140446289442e-06,-21.587474822998047,61.219329833984375,0.0014432143652811646,-0.5965802669525146,-0.040277622640132904,1.6525569662917405e-05
800,13.858803719143907,2.467104911804199,-0.014381220564246178,9.807907104492188,-2.8864175760645594e-07,-0.0007437402382493019,-1.5432257214342826e-06,-21.54423713684082,61.21887969970703,0.0014456938952207565,-0.5965811610221863,-0.039847321808338165,1.6360796507797204e-05
801,13.86880371892039,2.606611967086792,0.02707446739077568,9.806682586669922,1.2113284810766345e-06,-0.0006883105379529297,-1.7213695855389233e-06,-21.50074005126953,61.21842575073242,0.0014480209210887551,-0.5965820550918579,-0.03945117071270943,1.7055503121810034e-05
802,13.878803718696872,2.5269670486450195,-0.01375633291900158,9.807897567749023,-2.562908605341363e-07,-0.0006777083035558462,-1.1114897233710508e-06,-21.456989288330078,61.21797180175781,0.0014503097627311945,-0.5965826511383057,-0.03906184807419777,1.6909152691368945e-05
803,13.888803718473355,2.6064834594726562,0.02707446739077568,9.806716918945312,-2.2161381707519467e-07,-0.0006361543200910091,-8.465495398013445e-07,-21.412981033325195,61.21751403808594,0.0014524459838867188,-0.5965831279754639,-0.03869985044002533,1.678249827818945e-05
804,13.898803718249837,2.4668474197387695,-0.014381058514118195,9.807588577270508,-3.699231569953554e-07,-0.0006203645025379956,-1.4798351912759244e-06,-21.368722915649414,61.2170524597168,0.0014545058365911245,-0.5965840816497803,-0.03834468126296997,1.6571100786677562e-05
805,13.90880371802632,2.566784381866455,-0.013339845463633537,9.807538032531738,-3.921446136700979e-07,-0.0005883752601221204,-1.4530237422150094e-06,-21.32421112060547,61.216590881347656,0.0014564895536750555,-0.5965847969055176,-0.03801000118255615,1.6347001292160712e-05
806,13.918803717802803,2.5063154697418213,0.026033323258161545,9.807973861694336,1.3861386705116274e-08,-0.0005679987953044474,-2.686784910110873e-06,-21.279449462890625,61.21612548828125,0.0014584349701181054,-0.5965863466262817,-0.03768215328454971,1.6355976185877807e-05
807,13.928803717579285,2.506678819656372,-0.013964504934847355,9.807222366333008,-7.811367481735942e-07,-0.0005418137880042195,-3.275603148722439e-06,-21.234437942504883,61.21565628051758,0.0014602660667151213,-0.5965882539749146,-0.037374794483184814,1.590961437614169e-05
808,13.938803717355768,2.5270440578460693,-0.05375402420759201,9.807604789733887,-1.102706264077824e-07,-0.0005222034524194896,-3.0113401408016216e-06,-21.18917465209961,61.21518325805664,0.0014620207948610187,-0.5965899229049683,-0.037081096321344376,1.584758865647018e-05
809,13.94880371713225,2.485748052597046,0.06582305580377579,9.807642936706543,2.583514344678406e-07,-0.0004993196344003081,-2.072992629109649e-06,-21.143661499023438,61.2147102355957,0.0014636992709711194,-0.5965912342071533,-0.03679422661662102,1.5996363799786195e-05
810,13.958803716908733,2.526947259902954,-0.05375388637185097,9.807629585266113,-9.441787085506803e-08,-0.0004792773106601089,-2.612885964481393e-06,-21.097896575927734,61.2142333984375,0.0014653014950454235,-0.5965927243232727,-0.03651418909430504,1.594325112819206e-05
811,13.968803716685215,2.4656567573547363,0.06561500579118729,9.808059692382812,7.901042522462376e-07,-0.0004579790693242103,-2.4601347377029015e-06,-21.05188751220703,61.21375274658203,0.0014668655348941684,-0.596593976020813,-0.0362546406686306,1.6396830687881447e-05
812,13.978803716461698,2.506859302520752,-0.05396193638443947,9.80728530883789,-3.5168520184925e-07,-0.0004395042487885803,-3.668294084491208e-06,-21.005626678466797,61.2132682800293,0.0014683151384815574,-0.5965961217880249,-0.03599509596824646,1.6196623619180173e-05
813,13.98880371623818,2.4659879207611084,0.025617266073822975,9.808079719543457,-1.723524150065714e-07,-0.0004207739548292011,-2.430525228191982e-06,-20.95911979675293,61.21278762817383,0.0014697265578433871,-0.59659743309021,-0.03575603663921356,1.6098709238576703e-05
814,13.998803716014663,2.5263614654541016,-0.013755761086940765,9.808055877685547,-4.7567880301357945e-07,-0.0004034033336210996,-4.027587237942498e-06,-20.912363052368164,61.21229934692383,0.0014710997929796576,-0.5965998768806458,-0.03552381321787834,1.5827630704734474e-05
815,14.008803715791146,2.4459116458892822,0.025409117341041565,9.807731628417969,-3.857157082620688e-07,-0.000385250779800117,-3.3494745821371907e-06,-20.865360260009766,61.21181106567383,0.0014723967760801315,-0.5966017246246338,-0.03530524671077728,1.560779128340073e-05
816,14.018803715567628,2.506288528442383,-0.013963834382593632,9.807703971862793,3.82488792638469e-07,-0.00036832658224739134,-3.843094873445807e-06,-20.8181095123291,61.2113151550293,0.0014736175071448088,-0.5966039299964905,-0.035093508660793304,1.5828334653633647e-05
817,14.028803715344111,2.426257848739624,-0.014796809293329716,9.80814266204834,-2.0549390455926186e-07,-0.00035240239230915904,-2.011904825849342e-06,-20.770614624023438,61.21082305908203,0.0014748000539839268,-0.5966050624847412,-0.034888602793216705,1.5711255400674418e-05
818,14.038803715120594,2.4858057498931885,0.025825798511505127,9.808116912841797,2.4045465618627304e-09,-0.0003373113868292421,-7.533438974860474e-07,-20.72287368774414,61.2103271484375,0.0014759445330128074,-0.5966055393218994,-0.034697357565164566,1.5712885215179995e-05
819,14.048803714897076,2.5061891078948975,-0.013963669538497925,9.80772876739502,6.573220616701292e-07,-0.00032176708918996155,-2.0503787254710915e-06,-20.674882888793945,61.2098274230957,0.0014770126435905695,-0.5966066122055054,-0.034512944519519806,1.609020182513632e-05
820,14.058803714673559,2.425748109817505,0.025201186537742615,9.808165550231934,-3.2291197271661076e-07,-0.0003070051607210189,-2.565760269135353e-06,-20.62664794921875,61.20932388305664,0.0014780425699427724,-0.5966081619262695,-0.03434218838810921,1.5906109183561057e-05
821,14.068803714450041,2.4861321449279785,-0.014171849936246872,9.808138847351074,-4.010038310298114e-07,-0.0002942207211162895,-2.934714075308875e-06,-20.578166961669922,61.20882034301758,0.0014790344284847379,-0.596609890460968,-0.03417143598198891,1.567733306728769e-05
822,14.078803714226524,2.446106195449829,-0.01458832062780857,9.808167457580566,-5.324654352989455e-07,-0.0002804214309435338,-3.5598588965513045e-06,-20.52943992614746,61.20831298828125,0.0014799881028011441,-0.5966119170188904,-0.03400750830769539,1.5373490896308795e-05
823,14.088803714003006,2.4656639099121094,0.02561788260936737,9.8081636428833,3.391151324194652e-07,-0.0002681708137970418,-3.5809698601951823e-06,-20.48046875,61.20780563354492,0.0014809035928919911,-0.5966139435768127,-0.03386407718062401,1.5569008610327728e-05
824,14.098803713779489,2.446054697036743,-0.01458806823939085,9.807801246643066,1.2712987995655567e-07,-0.000255521503277123,-4.816048203792889e-06,-20.431251525878906,61.20729446411133,0.0014817428309470415,-0.5966167449951172,-0.03370698168873787,1.564345984661486e-05
825,14.108803713555972,2.4664480686187744,-0.054377518594264984,9.808553695678711,-8.347758040372355e-09,-0.00024434778606519103,-5.44441036254284e-06,-20.38178825378418,61.2067756652832,0.0014825820690020919,-0.5966197848320007,-0.03357720747590065,1.5640491255908273e-05
826,14.118803713332454,2.4451749324798584,0.06540775299072266,9.807812690734863,-5.92895901263546e-07,-0.00023373219300992787,-3.6002545584779e-06,-20.332082748413086,61.20625686645508,0.0014833450550213456,-0.5966218709945679,-0.03343377262353897,1.5302020983654074e-05
827,14.128803713108937,2.466402530670166,-0.054377369582653046,9.808568000793457,5.047767217547516e-07,-0.00022204728156793863,-2.284877609781688e-06,-20.28213119506836,61.20573425292969,0.0014841079246252775,-0.5966233015060425,-0.03331083059310913,1.559200245537795e-05
828,14.13880371288542,2.4451329708099365,0.06540796160697937,9.808204650878906,5.69907285807858e-07,-0.00021254939201753587,-2.002208702833741e-06,-20.231935501098633,61.2052116394043,0.001484832726418972,-0.5966243743896484,-0.03318788856267929,1.591920226928778e-05
829,14.148803712661902,2.446768283843994,-0.05458522215485573,10.517742156982422,6.181308549457754e-07,-0.00023827739642001688,-1.8462513935446623e-06,-20.181495666503906,61.20468521118164,0.0015564727364107966,-0.5966253876686096,-0.03305128216743469,1.6273968867608346e-05
830,14.158803712438385,2.4454309940338135,0.02541014924645424,9.681568145751953,-8.215586149162846e-07,-0.00022531917784363031,-1.0983940228470601e-06,-20.13081169128418,61.204158782958984,0.0016154098557308316,-0.5966259837150574,-0.03292151167988777,1.5803621863597073e-05
831,14.168803712214867,2.46585750579834,-0.014379418455064297,9.701009750366211,-2.882677279103518e-07,-0.00019382397294975817,-1.5316240933316294e-06,-20.07988166809082,61.2036247253418,0.001663589384406805,-0.5966259837150574,-0.03292151167988777,1.5803621863597073e-05
832,14.17880371199135,2.3854165077209473,0.024785401299595833,9.717087745666504,5.665909696972449e-08,-0.00020227738423272967,-2.3695854167726793e-07,-20.02871322631836,61.203094482421875,0.0017026137793436646,-0.5966269969940186,-0.032696112990379333,1.5671483197365887e-05
833,14.188803711767832,2.505833864212036,-0.013962874189019203,9.729990005493164,7.505906864935241e-07,-0.0001582349359523505,1.236161097040167e-06,-19.977294921875,61.20255661010742,0.0017337799072265625,-0.5966269969940186,-0.032696112990379333,1.5671483197365887e-05
834,14.198803711544315,2.3458173274993896,-0.01562865637242794,9.744964599609375,5.4523738413081446e-08,-0.0001970560260815546,-9.912690074997954e-06,-19.925643920898438,61.20201873779297,0.001758575439453125,-0.5966320037841797,-0.032498039305210114,1.613560198165942e-05
835,14.208803711320797,1.1250121593475342,0.05166298896074295,9.763976097106934,4.258139369994751e-07,-0.0005059296963736415,1.7492146071163006e-05,-19.87388038635254,61.20148468017578,0.001778831472620368,-0.5966219305992126,-0.032211169600486755,1.63739277923014e-05
836,14.21880371109728,0.9857702851295471,-0.02979016676545143,9.777029991149902,-6.202841973390605e-07,-0.0009039636352099478,-3.63375547749456e-05,-19.822017669677734,61.2009391784668,0.0017958449898287654,-0.596642792224884,-0.0316852442920208,1.603010605322197e-05
837,14.228803710873763,-5.0545525550842285,-0.05268889293074608,9.832881927490234,9.830363296714495e-07,-0.002671019872650504,-1.9330116629134864e-05,-19.770662307739258,61.20040512084961,0.0018148802919313312,-0.596653938293457,-0.030148454010486603,1.659935514908284e-05
838,14.238803710650245,1.4844160079956055,0.05541239306330681,9.765384674072266,1.9546691021332663e-07,-0.0023237827699631453,6.649104761891067e-06,-19.719158172607422,61.199867248535156,0.0018295287154614925,-0.5966501235961914,-0.02882339619100094,1.670941310294438e-05
839,14.248803710426728,-2.4756362438201904,0.014175637625157833,9.80469036102295,-5.256838448985945e-07,-0.0029267126228660345,1.6862941265571862e-06,-19.66790199279785,61.19933319091797,0.001843528705649078,-0.5966493487358093,-0.027150001376867294,1.6407746443292126e-05
840,14.25880371020321,1.7847157716751099,-0.021459460258483887,9.767616271972656,1.5378219586636988e-07,-0.002352291252464056,7.212521268229466e-06,-19.61646842956543,61.19879913330078,0.0018533705733716488,-0.596645176410675,-0.0257839635014534,1.6493962903041393e-05
841,14.268803709979693,-2.7761385440826416,0.011052023619413376,9.813840866088867,4.619049676080067e-08,-0.0029717055149376392,5.5066739150788635e-06,-19.565311431884766,61.198265075683594,0.0018634796142578125,-0.5966419577598572,-0.024096906185150146,1.651902130106464e-05
842,14.278803709756176,2.204608917236328,-0.057083968073129654,9.767923355102539,7.62372209806017e-08,-0.002182480413466692,5.57634120923467e-06,-19.513935089111328,61.19772720336914,0.0018694686004891992,-0.5966387391090393,-0.02284698188304901,1.6561412849114276e-05
843,14.288803709532658,-2.3970530033111572,0.055007003247737885,9.816231727600098,-5.08373204866075e-07,-0.002689383691176772,2.0928298454236938e-06,-19.462799072265625,61.19719696044922,0.0018759918166324496,-0.5966376662254333,-0.021303359419107437,1.62696869665524e-05
844,14.29880370930914,2.4437382221221924,-0.014587215147912502,9.77137279510498,-7.226324214570923e-07,-0.0018352314364165068,2.561296241765376e-06,-19.411420822143555,61.196659088134766,0.0018787384033203125,-0.596636176109314,-0.02025151066482067,1.585515019542072e-05
845,14.308803709085623,-2.1770570278167725,0.01730017364025116,9.81949234008789,9.789010846361634e-07,-0.0023192395456135273,2.085106871163589e-06,-19.36025619506836,61.19612503051758,0.0018823622958734632,-0.5966351628303528,-0.018912792205810547,1.6415615391451865e-05
846,14.318803708862106,2.7033591270446777,-0.011879945173859596,9.77367115020752,-4.5121242919776705e-07,-0.0014303610660135746,4.5359206524153706e-06,-19.308826446533203,61.19559097290039,0.0018824386643245816,-0.5966323018074036,-0.01810683123767376,1.6156236597453244e-05
847,14.328803708638588,-1.9173966646194458,0.02000761218369007,9.82315731048584,1.170086338930787e-08,-0.0019130181754007936,-2.3400225757086446e-07,-19.257585525512695,61.1950569152832,0.001883773715235293,-0.5966325998306274,-0.017007170245051384,1.6162997781066224e-05
848,14.338803708415071,2.92264461517334,0.030408624559640884,9.776357650756836,-6.693418868053413e-07,-0.001019586925394833,2.2000333501637215e-06,-19.206052780151367,61.19452667236328,0.001881828298792243,-0.5966311693191528,-0.016426604241132736,1.5779127352288924e-05
849,14.348803708191554,-1.6564100980758667,-0.09727855026721954,9.824944496154785,-2.8662671525125916e-07,-0.0015177368186414242,-4.0367694964515977e-07,-19.154687881469727,61.19398880004883,0.0018813323695212603,-0.5966315269470215,-0.01555234007537365,1.5614967196597718e-05
850,14.358803707968036,3.102008104324341,0.07228069752454758,9.779043197631836,-2.1231146263289702e-07,-0.0006338876555673778,2.0869031231995905e-06,-19.103010177612305,61.193450927734375,0.0018778227968141437,-0.5966302156448364,-0.015190339647233486,1.5493003957089968e-05
851,14.368803707744519,-1.4374312162399292,-0.014992070384323597,9.827532768249512,-2.699372885217599e-07,-0.0011534836376085877,-1.1187950121893664e-06,-19.05147933959961,61.19291305541992,0.001876029884442687,-0.5966309905052185,-0.014520981349050999,1.5338509911089204e-05
852,14.378803707521001,3.283107280731201,-0.04583841189742088,9.78018569946289,6.689212455057714e-07,-0.00028619810473173857,9.626763812775607e-07,-18.99962043762207,61.1923713684082,0.0018713378813117743,-0.5966304540634155,-0.014363886788487434,1.5721630916232243e-05
853,14.388803707297484,-1.2583825588226318,0.06687808781862259,9.82938003540039,7.411146043523331e-07,-0.0008304694201797247,7.953120189085894e-07,-18.947885513305664,61.19183349609375,0.0018685531103983521,-0.5966299772262573,-0.013885773718357086,1.6146177586051635e-05
854,14.398803707073967,3.4830150604248047,-0.043755773454904556,9.782072067260742,-9.165783581011056e-07,1.5919205907266587e-05,2.184862523790798e-06,-18.895803451538086,61.19129180908203,0.0018630599370226264,-0.5966299772262573,-0.013885773718357086,1.6146177586051635e-05
855,14.408803706850449,-1.0780271291732788,0.02875448577105999,9.830093383789062,-2.9360694497881923e-07,-0.0005511591443791986,-1.5225571132759796e-06,-18.843828201293945,61.19075012207031,0.0018595504807308316,-0.5966295599937439,-0.013585245236754417,1.5452669686055742e-05
856,14.418803706626932,3.642982244491577,-0.04208982363343239,9.783567428588867,5.50665163245867e-07,0.00027103855973109603,9.062258072844998e-07,-18.791492462158203,61.19020462036133,0.0018534850096330047,-0.5966290235519409,-0.013742339797317982,1.5768040611874312e-05
857,14.428803706403414,-0.9384556412696838,0.07021026313304901,9.831584930419922,5.995710807837895e-07,-0.0003162376815453172,1.2225176533320337e-06,-18.739248275756836,61.18966293334961,0.0018495558761060238,-0.5966283679008484,-0.013557924889028072,1.611140396562405e-05
858,14.438803706179897,3.782991409301758,-0.040632180869579315,9.784674644470215,-9.641145197747392e-07,0.00048361194785684347,2.457687969581457e-06,-18.686626434326172,61.18911361694336,0.0018431853968650103,-0.5966269969940186,-0.013837962411344051,1.5558654922642745e-05
859,14.44880370595638,-0.777583122253418,-0.008119405247271061,9.831932067871094,6.179026286190492e-07,-0.0001231520000146702,-1.5224923117784783e-06,-18.63408088684082,61.188568115234375,0.0018389892065897584,-0.5966269969940186,-0.013837962411344051,1.5558654922642745e-05
860,14.458803705732862,3.9026196002960205,0.0006152251153253019,9.785006523132324,-4.4065112092539493e-07,0.0006541165639646351,1.2048083135596244e-06,-18.581148147583008,61.18801498413086,0.0018323897384107113,-0.5966269969940186,-0.01413849089294672,1.5660278222640045e-05
861,14.468803705509345,-0.6575377583503723,-0.006869838107377291,9.833050727844238,5.504268187905836e-07,3.2570849725743756e-05,1.7680245036899578e-06,-18.52828025817871,61.18746566772461,0.0018280792282894254,-0.5966269969940186,-0.01413849089294672,1.5660278222640045e-05
862,14.478803705285827,4.002695083618164,0.001656416803598404,9.785711288452148,-2.2215337480702146e-07,0.0007883249199949205,1.5753023490105988e-06,-18.475011825561523,61.18690872192383,0.001821441575884819,-0.5966250896453857,-0.014609773643314838,1.584788151376415e-05
863,14.48880370506231,-0.517880916595459,0.034585848450660706,9.833403587341309,-1.1004918576418277e-07,0.00015397481911350042,-1.586700591360568e-06,-18.421794891357422,61.18635559082031,0.0018171309493482113,-0.5966250896453857,-0.014609773643314838,1.584788151376415e-05
864,14.498803704838792,4.102792739868164,0.002697642194107175,9.786404609680176,-4.2133504507546604e-07,0.0008906528237275779,1.8055933423966053e-06,-18.3681697845459,61.18579864501953,0.0018105696653947234,-0.5966249704360962,-0.015210830606520176,1.554340087750461e-05
865,14.508803704615275,-0.43734216690063477,-0.004579043947160244,9.83338737487793,-4.894596372650994e-07,0.0002475174842402339,1.4169617088555242e-06,-18.314586639404297,61.18524169921875,0.0018063354073092341,-0.5966243147850037,-0.01534743420779705,1.5262716260622256e-05
866,14.518803704391757,4.1829071044921875,0.0035305735655128956,9.786334037780762,2.9708235160796903e-07,0.0009665409452281892,7.507669579354115e-07,-18.260587692260742,61.1846809387207,0.001799850375391543,-0.5966238975524902,-0.01590750925242901,1.5432822692673653e-05
867,14.52880370416824,-0.2968065142631531,-0.043119028210639954,9.833735466003418,2.331259310039968e-07,0.0003158581966999918,-2.995227305291337e-06,-18.20661735534668,61.184120178222656,0.0017957305535674095,-0.5966254472732544,-0.016085093840956688,1.5566884030704387e-05
868,14.538803703944723,4.223451137542725,-0.03605068102478981,9.787027359008789,-8.318510822391545e-07,0.0010184567654505372,-5.9553290299163564e-08,-18.152225494384766,61.18354797363281,0.0017894363263621926,-0.5966255068778992,-0.016665659844875336,1.5090263332240283e-05
869,14.548803703721205,-0.23792333900928497,0.07749910652637482,9.833723068237305,-5.3996637916498e-07,0.00036145004560239613,1.306371700593445e-06,-18.097856521606445,61.1829833984375,0.0017855071928352118,-0.5966249108314514,-0.016877396032214165,1.4780670426262077e-05
870,14.558803703497688,4.303585529327393,-0.03521766513586044,9.787324905395508,1.1925106946364394e-06,0.0010506784310564399,5.487740395437868e-07,-18.043058395385742,61.182411193847656,0.0017794418381527066,-0.5966244339942932,-0.017478452995419502,1.5463829186046496e-05
871,14.56880370327417,-0.13695402443408966,-0.0014552121283486485,9.833311080932617,-6.186181167322502e-07,0.0003909692750312388,-2.116586074407678e-06,-17.9882755279541,61.18183898925781,0.0017757033929228783,-0.5966256856918335,-0.01770384982228279,1.51097656271304e-05
872,14.578803703050653,4.363308429718018,0.005404829513281584,9.787627220153809,-4.357680722932855e-07,0.0010657294187694788,2.538849230404594e-06,-17.933055877685547,61.1812629699707,0.0017698669107630849,-0.5966243743896484,-0.01831173524260521,1.4859637303743511e-05
873,14.588803702827136,-0.11681066453456879,-0.0012470203218981624,9.834070205688477,-2.970678281144501e-07,0.0004044563393108547,2.507812268959242e-06,-17.87784767150879,61.180686950683594,0.0017664337065070868,-0.5966229438781738,-0.018543962389230728,1.4688988812849857e-05
874,14.598803702603618,4.423449993133545,0.0060293967835605145,9.787158966064453,7.700672881583159e-07,0.0010671588825061917,3.18580214297981e-06,-17.82219696044922,61.18010711669922,0.0017608641646802425,-0.5966211557388306,-0.019158679991960526,1.5129607163544279e-05
875,14.6088037023801,-0.036669906228780746,-0.00041385492659173906,9.833283424377441,6.178728426675661e-07,0.0004060892388224602,8.753768838687392e-07,-17.766551971435547,61.17952346801758,0.0017576217651367188,-0.5966206789016724,-0.019390905275940895,1.5483441529795527e-05
876,14.618803702156583,4.444007873535156,-0.033760447055101395,9.787849426269531,3.7135572483748547e-07,0.0010576079366728663,7.203088443930028e-06,-17.710460662841797,61.17893981933594,0.0017523192800581455,-0.5966164469718933,-0.019991962239146233,1.5694775356678292e-05
877,14.628803701933066,0.023052304983139038,0.04020874574780464,9.83364486694336,-3.0280813234639936e-07,0.00039800029480829835,6.263938757911092e-06,-17.654369354248047,61.17835235595703,0.0017493820050731301,-0.5966128706932068,-0.02021735906600952,1.5520015949732624e-05
878,14.638803701709548,4.484146595001221,-0.03334445506334305,9.787389755249023,4.233011736687331e-07,0.0010395135032013059,5.631163730868138e-06,-17.597829818725586,61.17776107788086,0.001744346576742828,-0.5966096520423889,-0.02081841602921486,1.576139038661495e-05
879,14.648803701486031,0.04360825568437576,0.00041933596367016435,9.833253860473633,1.2969869658263633e-06,0.0003816774988081306,2.8781555556633975e-06,-17.541284561157227,61.17716979980469,0.0017416381742805243,-0.5966081619262695,-0.02103698067367077,1.6503921870025806e-05
880,14.658803701262514,4.52386474609375,0.007069548591971397,9.788077354431152,6.925177444827568e-07,0.0010148583678528666,8.939627150539309e-06,-17.484289169311523,61.17657470703125,0.0017369078705087304,-0.5966030359268188,-0.021617546677589417,1.6898800822673365e-05
881,14.668803701038996,0.08374059945344925,0.0008359717321582139,9.832476615905762,7.9924245710572e-07,0.00035797455348074436,7.905221536930185e-06,-17.427284240722656,61.17597961425781,0.0017344283405691385,-0.5965984463691711,-0.021822452545166016,1.7354986994178034e-05
882,14.678803700815479,4.543994426727295,0.007277024444192648,9.7883882522583,-1.267920993086591e-06,0.0009840339189395308,7.989163350430317e-06,-17.369827270507812,61.17538070678711,0.0017299652099609375,-0.5965938568115234,-0.022382529452443123,1.6626772776362486e-05
883,14.688803700591961,0.12386736273765564,0.0012523565674200654,9.832459449768066,3.043732874630223e-07,0.0003319568349979818,5.740336746384855e-06,-17.312358856201172,61.17477798461914,0.0017277526203542948,-0.5965904593467712,-0.022573774680495262,1.67998623510357e-05
884,14.698803700368444,4.544119358062744,0.007276362739503384,9.788331985473633,1.1138407671751338e-06,0.0009498606086708605,1.174638691736618e-05,-17.254432678222656,61.17417526245117,0.001723556430079043,-0.5965837240219116,-0.02311335876584053,1.7435353584005497e-05
885,14.708803700144927,0.16440574824810028,-0.038328867405653,9.832059860229492,4.497564418670663e-07,0.00030175718711689115,1.046506076818332e-05,-17.19649314880371,61.17356872558594,0.0017215728294104338,-0.5965777635574341,-0.02329777367413044,1.769061418599449e-05
886,14.71880369992141,4.5838212966918945,0.04768984764814377,9.788641929626465,5.720692115573911e-07,0.000913787167519331,9.991847036872059e-06,-17.13809585571289,61.17295837402344,0.001717643695883453,-0.5965720415115356,-0.023816868662834167,1.8016036847257055e-05
887,14.728803699697892,0.14452271163463593,-0.03853701055049896,9.831682205200195,6.758131689821312e-07,0.00026929614250548184,8.22678703116253e-06,-17.079683303833008,61.17234802246094,0.0017158889677375555,-0.5965673923492432,-0.023973962292075157,1.8401267880108207e-05
888,14.738803699474374,4.604348182678223,0.007899397052824497,9.788581848144531,1.9101828456769e-06,0.0008754445589147508,1.5921781596262008e-05,-17.02081298828125,61.17173385620117,0.0017121887067332864,-0.5965582132339478,-0.024472566321492195,1.949187571881339e-05
889,14.748803699250857,0.20379550755023956,0.04208345711231232,9.831656455993652,-3.052539625514328e-07,0.0002365929540246725,1.5510140656260774e-05,-16.9619197845459,61.17111587524414,0.0017106628511101007,-0.596549391746521,-0.024609170854091644,1.931317638081964e-05
890,14.75880369902734,4.5848708152771,-0.03230808302760124,9.78815746307373,-1.2751927158660692e-07,0.0008371401927433908,1.4402766282728408e-05,-16.902570724487305,61.17049789428711,0.0017071532784029841,-0.5965410470962524,-0.025087283924221992,1.9236549633205868e-05
891,14.768803698803822,0.2247294783592224,-0.037703972309827805,9.832027435302734,7.209256978057965e-07,0.0002021802356466651,1.1353859918017406e-05,-16.843198776245117,61.16987609863281,0.0017058562953025103,-0.5965346097946167,-0.025203397497534752,1.964677358046174e-05
892,14.778803698580305,4.5641374588012695,0.04747813194990158,9.788501739501953,1.826562652240682e-06,0.0007987686549313366,2.0924362615915015e-05,-16.783369064331055,61.16925048828125,0.0017026137793436646,-0.5965225696563721,-0.02566101960837841,2.068798858090304e-05
893,14.788803698356787,0.2943874001502991,0.003022767137736082,9.831233024597168,3.088096889314329e-07,0.00016889101243577898,2.044319626293145e-05,-16.723512649536133,61.16862487792969,0.0017015074845403433,-0.5965225696563721,-0.02566101960837841,2.068798858090304e-05
894,14.79880369813327,4.574644088745117,0.007582671009004116,9.788454055786133,4.049563884223062e-08,0.0007602646946907043,1.8138285668101162e-05,-16.663198471069336,61.16799545288086,0.001698455773293972,-0.5965004563331604,-0.02619377337396145,2.0878125724266283e-05
895,14.808803697909752,0.25489744544029236,-0.03739157319068909,9.831247329711914,-5.6073730547723244e-08,0.0001360074820695445,1.5315845303121023e-05,-16.602859497070312,61.16736602783203,0.001697540283203125,-0.5965004563331604,-0.02619377337396145,2.0878125724266283e-05
896,14.818803697686235,4.584726333618164,0.007685098797082901,9.788030624389648,1.8612489611768979e-06,0.0007229641196317971,2.4954455511760898e-05,-16.542062759399414,61.16673278808594,0.001694641076028347,-0.596477210521698,-0.026678716763854027,2.190176564909052e-05
897,14.828803697462718,0.3141445517539978,0.04322878643870354,9.831217765808105,1.0183842960032052e-06,0.00010354461846873164,2.318430779268965e-05,-16.48123550415039,61.16609573364258,0.0016938780900090933,-0.596477210521698,-0.026678716763854027,2.190176564909052e-05
898,14.8388036972392,4.565223693847656,-0.0325227752327919,9.788765907287598,6.054592631699052e-07,0.0006874152459204197,2.0748213501065038e-05,-16.419950485229492,61.16545867919922,0.0016912078717723489,-0.5964521169662476,-0.027143171057105064,2.282039167766925e-05
899,14.848803697015683,0.294641375541687,0.0030227764509618282,9.830461502075195,1.2495983128246735e-06,7.128902507247403e-05,1.6441243133158423e-05,-16.3586368560791,61.164817810058594,0.0016905975062400103,-0.5964521169662476,-0.027143171057105064,2.282039167766925e-05
900,14.858803696792165,4.604874610900879,0.007889630272984505,9.788713455200195,7.499872367588978e-07,0.0006536844884976745,2.7151625545229763e-05,-16.296865463256836,61.1641731262207,0.0016880797920748591,-0.5964270234107971,-0.027552980929613113,2.3954153220984153e-05
901,14.868803696568648,0.29471150040626526,0.003022843971848488,9.830079078674316,-1.1754789852602698e-07,4.201109550194815e-05,2.5220671886927448e-05,-16.235063552856445,61.16352844238281,0.0016875838628038764,-0.5964270234107971,-0.027552980929613113,2.3954153220984153e-05
902,14.87880369634513,4.5753560066223145,-0.03242262452840805,9.789078712463379,1.4209534526798961e-07,0.0006202946533448994,2.1490461222128943e-05,-16.17280387878418,61.162879943847656,0.0016852187691256404,-0.596400260925293,-0.02791498228907585,2.3955299184308387e-05
903,14.888803696121613,0.3243567943572998,0.04333280771970749,9.830063819885254,-1.22778956779257e-07,1.444439658371266e-05,1.8143186025554314e-05,-16.110511779785156,61.1622314453125,0.0016848754603415728,-0.596400260925293,-0.02791498228907585,2.3955299184308387e-05
904,14.898803695898096,4.575416564941406,-0.032424796372652054,9.78866958618164,-1.0433171837576083e-06,0.000588482478633523,2.661150756466668e-05,-16.04776382446289,61.16157531738281,0.0016826248029246926,-0.5963744521141052,-0.02827698178589344,2.3274596969713457e-05
905,14.908803695674578,0.33441758155822754,0.04343663156032562,9.830818176269531,-5.220992420618131e-07,-1.2497783245635219e-05,2.437299190205522e-05,-15.984983444213867,61.16092300415039,0.0016824721824377775,-0.5963744521141052,-0.02827698178589344,2.3274596969713457e-05
906,14.91880369545106,4.5554704666137695,-0.03263501450419426,9.78789234161377,4.895965162177163e-07,0.0005589862703345716,2.0416302504600026e-05,-15.921748161315918,61.16026306152344,0.0016803359612822533,-0.596348762512207,-0.02859117090702057,2.324329034308903e-05
907,14.928803695227543,0.3548867404460907,0.0036468100734055042,9.830806732177734,-1.465718469262356e-06,-3.7221911043161526e-05,1.1912243280676194e-05,-15.858476638793945,61.159603118896484,0.001680297777056694,-0.596348762512207,-0.02859117090702057,2.324329034308903e-05
908,14.938803695004026,4.545103073120117,0.007257069926708937,9.78825569152832,-1.5769322772030137e-06,0.0005312233115546405,1.8341612303629518e-05,-15.79475212097168,61.158939361572266,0.0016783141763880849,-0.5963314175605774,-0.028871208429336548,2.1491319785127416e-05
909,14.948803694780509,0.36493366956710815,0.0037504802457988262,9.829654693603516,-2.1676422079508484e-07,-6.0837981436634436e-05,1.5454714230145328e-05,-15.730990409851074,61.15827560424805,0.0016783141763880849,-0.5963314175605774,-0.028871208429336548,2.1491319785127416e-05
910,14.958803694556991,4.545147895812988,0.007255678530782461,9.78938102722168,-1.2353095826256322e-06,0.0005058865644969046,1.2008887097181287e-05,-15.666775703430176,61.1576042175293,0.001676483079791069,-0.5963156819343567,-0.029130754992365837,2.0651394152082503e-05
911,14.968803694333474,0.3549785614013672,0.003646162571385503,9.829277038574219,1.8242083399400144e-07,-8.208055805880576e-05,9.435857464268338e-06,-15.60252571105957,61.15693664550781,0.001676597516052425,-0.5963156819343567,-0.029130754992365837,2.0651394152082503e-05
912,14.978803694109956,4.535603046417236,-0.03284727782011032,9.788602828979492,2.947242023765284e-07,0.00048126152250915766,1.4609716345148627e-05,-15.537822723388672,61.1562614440918,0.0016748046036809683,-0.5963019132614136,-0.029356151819229126,2.0917781512252986e-05
913,14.988803693886439,0.3845997154712677,0.043956175446510315,9.830023765563965,-1.6674291600793367e-06,-0.00010291425860486925,1.2404925655573606e-05,-15.473081588745117,61.15559005737305,0.00167503347620368,-0.5963019132614136,-0.029356151819229126,2.0917781512252986e-05
914,14.998803693662921,4.505642414093018,-0.03316053748130798,9.788984298706055,6.092972171245492e-07,0.0004582752881105989,8.623013854958117e-06,-15.407890319824219,61.154911041259766,0.0016733931843191385,-0.596289873123169,-0.029574718326330185,2.0305302314227447e-05
915,15.008803693439404,0.40505197644233704,0.004166297148913145,9.82924747467041,-1.1431011444074102e-06,-0.00012114770652260631,6.8311283030197956e-06,-15.342659950256348,61.154232025146484,0.0016736984252929688,-0.596289873123169,-0.029574718326330185,2.0305302314227447e-05
916,15.018803693215887,4.495254039764404,0.0067322757095098495,9.788594245910645,-3.0748492463317234e-07,0.0004373722185846418,1.1060722499678377e-05,-15.276979446411133,61.15354919433594,0.0016720962012186646,-0.5962795615196228,-0.029738642275333405,1.9468856407911517e-05
917,15.02880369299237,0.4046638309955597,0.044163916260004044,9.829248428344727,1.5474024905870465e-07,-0.0001386642106808722,8.167505257006269e-06,-15.211259841918945,61.15286636352539,0.0016724395100027323,-0.5962795615196228,-0.029738642275333405,1.9468856407911517e-05
918,15.038803692768852,4.4861159324646,-0.07336828857660294,9.789730072021484,-1.806750788091449e-06,0.0004179140960332006,6.752898570994148e-06,-15.14509105682373,61.15217590332031,0.0016709899064153433,-0.5962710380554199,-0.029902566224336624,1.8517910575610586e-05
919,15.048803692545334,0.4146910309791565,0.04426775872707367,9.828478813171387,-8.301943807964562e-07,-0.00015414258814416826,4.156782779318746e-06,-15.078883171081543,61.1514892578125,0.0016714095836505294,-0.5962710380554199,-0.029902566224336624,1.8517910575610586e-05
920,15.058803692321817,4.475309371948242,0.0065226065926253796,9.789342880249023,-1.283938104279514e-06,0.00039919980918057263,6.736112482030876e-06,-15.012226104736328,61.150794982910156,0.0016699981642886996,-0.5962647795677185,-0.030052831396460533,1.730332587612793e-05
921,15.0688036920983,0.4151332974433899,0.0042696730233728886,9.828859329223633,2.0613424567272887e-07,-0.00016889683320187032,4.8268630052916706e-06,-14.945528984069824,61.15010070800781,0.0016704940935596824,-0.5962647795677185,-0.030052831396460533,1.730332587612793e-05
922,15.078803691874782,4.475746154785156,-0.033475689589977264,9.78895092010498,-4.969148790223699e-07,0.00038269159267656505,4.8000756578403525e-06,-14.878385543823242,61.1494026184082,0.00166912074200809,-0.5962592363357544,-0.030175773426890373,1.713385063339956e-05
923,15.088803691651265,0.4047187268733978,0.044163305312395096,9.828862190246582,-5.393307560552785e-07,-0.00018231768626719713,2.8961346743017202e-06,-14.811202049255371,61.148704528808594,0.001669654855504632,-0.5962575674057007,-0.030059661716222763,1.6823951227706857e-05
924,15.098803691427747,4.465763568878174,-0.033580198884010315,9.789334297180176,-7.007030831118755e-07,0.0003671547747217119,4.780795279657468e-06,-14.743571281433105,61.14800262451172,0.0016683577559888363,-0.5962550640106201,-0.030271396040916443,1.642103416088503e-05
925,15.10880369120423,0.41515204310417175,0.0042694201692938805,9.828856468200684,-2.210114615763814e-07,-0.0001933457824634388,2.197615458499058e-06,-14.67590045928955,61.14729690551758,0.001668968121521175,-0.5962536931037903,-0.030162114650011063,1.6293728549499065e-05
926,15.118803690980712,4.465363502502441,0.006417287979274988,9.789324760437012,-8.908706945476297e-07,0.0003522068727761507,2.9812115371896653e-06,-14.607784271240234,61.14659118652344,0.0016677475068718195,-0.5962520241737366,-0.030367018654942513,1.57823978952365e-05
927,15.128803690757195,0.3951669931411743,0.004061099141836166,9.828484535217285,-9.01151963716984e-07,-0.00020499697711784393,1.3667086022906005e-06,-14.539627075195312,61.14588165283203,0.0016683959402143955,-0.5962512493133545,-0.030244076624512672,1.5265621186699718e-05
928,15.138803690533678,4.475374698638916,0.0065211281180381775,9.789313316345215,5.34697051080002e-07,0.0003391247591935098,2.6620400603860617e-06,-14.471025466918945,61.14516830444336,0.0016672133933752775,-0.5962496399879456,-0.03043532185256481,1.557119503559079e-05
929,15.14880369031016,0.3951787054538727,0.004061093553900719,9.828487396240234,-4.368746999716677e-07,-0.0002146420010831207,1.0206283604929922e-06,-14.402382850646973,61.14445495605469,0.0016679000109434128,-0.5962490439414978,-0.030312377959489822,1.532055830466561e-05
930,15.158803690086643,4.445804595947266,-0.03378896415233612,9.789320945739746,2.428922414310364e-07,0.00032768843811936677,4.13533342680239e-07,-14.333296775817871,61.14373779296875,0.001666755648329854,-0.5962489247322083,-0.03050362318754196,1.5459574569831602e-05
931,15.168803689863125,0.42477133870124817,0.04437106102705002,9.828471183776855,-8.568711109546712e-07,-0.00022413008264265954,-2.1694684164685896e-06,-14.264168739318848,61.14302062988281,0.0016674804501235485,-0.596250057220459,-0.030373848974704742,1.496928325650515e-05
932,15.178803689639608,4.415815353393555,-0.03410107642412186,9.789336204528809,-2.9354001185311063e-07,0.0003162003995385021,-2.1925538931100164e-06,-14.194599151611328,61.14229965209961,0.0016663741553202271,-0.5962514281272888,-0.030558263882994652,1.4801787983742543e-05
933,15.18880368941609,0.46519458293914795,0.004789301659911871,9.828064918518066,-2.0581233002303634e-06,-0.00023210635117720813,-8.368242561118677e-06,-14.124984741210938,61.14157485961914,0.0016670989571139216,-0.5962561368942261,-0.030428491532802582,1.3625152860186063e-05
934,15.198803689192573,4.37540864944458,0.0054810852743685246,9.7897367477417,-1.5417241456816555e-06,0.0003062443865928799,-1.3239574400358833e-05,-14.054932594299316,61.14085006713867,0.0016660308465361595,-0.5962636470794678,-0.03059924580156803,1.2745857929985505e-05
935,15.208803688969056,0.45478495955467224,0.044682882726192474,9.828453063964844,-1.7115393120548106e-06,-0.00023940729442983866,-1.5332550901803188e-05,-13.98483657836914,61.14012145996094,0.0016668319003656507,-0.5962724089622498,-0.030462641268968582,1.1769847333198413e-05
936,15.218803688745538,4.376246452331543,-0.07451346516609192,9.788969039916992,-3.815830211806315e-07,0.00029603848815895617,-1.4850211300654337e-05,-13.914301872253418,61.13938903808594,0.0016657637897878885,-0.5962809324264526,-0.03063339740037918,1.155576501332689e-05
937,15.22880368852202,0.45479080080986023,0.044682879000902176,9.828451156616211,-1.0709923117246944e-06,-0.00024614075664430857,-1.6121148291858844e-05,-13.84372329711914,61.13865661621094,0.0016665649600327015,-0.5962901711463928,-0.030496792867779732,1.094706567528192e-05
938,15.238803688298503,4.385417938232422,0.005587538238614798,9.790108680725098,-6.911290597599873e-07,0.00028776677208952606,-1.6590611267019995e-05,-13.772706031799316,61.13792037963867,0.0016656112857162952,-0.5962997078895569,-0.03065388649702072,1.0556122106208932e-05
939,15.248803688074986,0.436042457818985,-0.07551881670951843,9.827316284179688,-1.4228172631192137e-06,-0.0002525483723729849,-1.822171179810539e-05,-13.701644897460938,61.137176513671875,0.0016664123395457864,-0.5963100790977478,-0.03051045350730419,9.746471732796635e-06
940,15.258803687851469,4.3745880126953125,0.08548043668270111,9.790114402770996,-4.178236849838868e-07,0.000279616768239066,-1.5897308912826702e-05,-13.630148887634277,61.13643264770508,0.0016654586652293801,-0.5963191986083984,-0.03066754713654518,9.512014912615996e-06
941,15.268803687627951,0.4560439884662628,-0.0753106102347374,9.827685356140137,-5.504235218722897e-07,-0.0002576554543338716,-1.65392630151473e-05,-13.55860710144043,61.13568878173828,0.0016662979032844305,-0.5963287353515625,-0.03052411414682865,9.201647117151879e-06
942,15.278803687404434,4.345008850097656,0.045171648263931274,9.790128707885742,-6.604300892831816e-07,0.0002718885079957545,-1.5395611626445316e-05,-13.4866304397583,61.13494110107422,0.0016653822967782617,-0.5963375568389893,-0.03068803809583187,8.82796484802384e-06
943,15.288803687180916,0.4656282663345337,-0.03520859405398369,9.827683448791504,3.0972114473115653e-07,-0.00026217932463623583,-1.670915116847027e-05,-13.4146089553833,61.13418960571289,0.0016662597190588713,-0.5963470935821533,-0.03053094446659088,9.010519534058403e-06
944,15.298803686957399,4.345425128936768,0.005175263155251741,9.78974437713623,3.6847811202278535e-07,0.00026526101282797754,-1.4973801626183558e-05,-13.34215259552002,61.13343048095703,0.0016653442289680243,-0.5963557362556458,-0.03068803809583187,9.226217116520274e-06
945,15.308803686733881,0.4552125036716461,0.0046854084357619286,9.827690124511719,8.177187282853993e-07,-0.000266188639216125,-1.3952568224340212e-05,-13.269651412963867,61.13267517089844,0.001666221534833312,-0.5963636636734009,-0.03053094446659088,9.699038855615072e-06
946,15.318803686510364,4.3254265785217285,0.004968318622559309,9.79051685333252,2.3500948032051383e-07,0.0002589340729173273,-1.1914853530470282e-05,-13.196718215942383,61.13191223144531,0.0016653822967782617,-0.59637051820755,-0.03068803809583187,9.837312973104417e-06
947,15.328803686286847,0.4756262004375458,-0.03510414808988571,9.826915740966797,-2.8236485150046065e-07,-0.00026984495343640447,-1.1287143934168853e-05,-13.123738288879395,61.13114929199219,0.0016662597190588713,-0.5963769555091858,-0.03052411414682865,9.678989044914488e-06
948,15.33880368606333,4.315423488616943,0.004865099210292101,9.79052448272705,6.888182610964577e-07,0.00025276525411754847,-7.91565344115952e-06,-13.050328254699707,61.1303825378418,0.001665420481003821,-0.5963814854621887,-0.03066754713654518,1.0076108083012514e-05
949,15.348803685839812,0.4647918939590454,0.0447876900434494,9.827301979064941,1.2731909464491764e-06,-0.0002732204447966069,-7.366530098806834e-06,-12.976871490478516,61.12961959838867,0.001666335971094668,-0.5963857769966125,-0.03051045350730419,1.0807801118062343e-05
950,15.358803685616294,4.295838832855225,-0.035340093076229095,9.789774894714355,1.0960712870655698e-06,0.00024660967756062746,-6.069785285944818e-06,-12.902984619140625,61.12884521484375,0.0016654586652293801,-0.5963891744613647,-0.03065388649702072,1.1437696230132133e-05
951,15.368803685392777,0.4952046573162079,0.005102441180497408,9.828048706054688,1.6027815945562907e-06,-0.00027546859928406775,-5.210654762777267e-06,-12.829050064086914,61.128074645996094,0.0016664123395457864,-0.5963921546936035,-0.030496792867779732,1.2357584637356922e-05
952,15.37880368516926,4.27541971206665,0.004450155422091484,9.789787292480469,1.189949102808896e-06,0.00024247860710602254,-2.2596316284761997e-06,-12.754687309265137,61.12730026245117,0.001665573101490736,-0.5963934659957886,-0.03063339740037918,1.3040072190051433e-05
953,15.388803684945742,0.48520153760910034,0.0049985432997345924,9.82767391204834,5.021217930334387e-07,-0.00027803555713035166,-2.5490937787253642e-06,-12.680277824401855,61.126522064208984,0.0016665267758071423,-0.596394956111908,-0.030476301908493042,1.3328554814506788e-05
954,15.398803684722225,4.26541805267334,0.004346395377069712,9.790173530578613,1.5664279544580495e-06,0.0002377183409407735,-6.118606279414962e-07,-12.60544204711914,61.12574005126953,0.0016657257219776511,-0.5963951945304871,-0.03061973676085472,1.4226244275050703e-05
955,15.408803684498707,0.4856153130531311,-0.03499900922179222,9.827291488647461,1.2959372952536796e-06,-0.0002801465743687004,2.8334807211649604e-07,-12.530557632446289,61.12495803833008,0.0016666793962940574,-0.5963950753211975,-0.030462641268968582,1.4968644791224506e-05
956,15.41880368427519,4.254997730255127,0.044240087270736694,9.790182113647461,-1.1214010697813137e-07,0.00023317507293540984,3.8056350604165345e-06,-12.455248832702637,61.12417221069336,0.0016658782260492444,-0.5963929295539856,-0.0305924154818058,1.4903273040545173e-05
957,15.428803684051672,0.49560868740081787,-0.03489486128091812,9.826905250549316,1.0635270655257045e-06,-0.0002826913259923458,3.4066204079863383e-06,-12.379891395568848,61.12338638305664,0.0016667938325554132,-0.596390962600708,-0.030428491532802582,1.5511619494645856e-05
958,15.438803683828155,4.24540901184082,0.0041379681788384914,9.790952682495117,1.3933163245383184e-06,0.0002293331199325621,6.771793323423481e-06,-12.304108619689941,61.122596740722656,0.0016660308465361595,-0.5963870286941528,-0.030558263882994652,1.630783845030237e-05
959,15.448803683604638,0.4947713017463684,0.04510094225406647,9.826906204223633,6.796738603043195e-07,-0.00028375425608828664,6.406413831427926e-06,-12.228277206420898,61.12180709838867,0.0016669845208525658,-0.5963833928108215,-0.030401170253753662,1.6695343219907954e-05
960,15.45880368338112,4.2358198165893555,-0.03596443682909012,9.79057788848877,8.7822951400085e-07,0.00022564313258044422,8.541863280697726e-06,-12.152023315429688,61.121009826660156,0.001666221534833312,-0.5963783860206604,-0.03052411414682865,1.7195912732859142e-05
961,15.468803683157603,0.5051813125610352,0.005207246169447899,9.826899528503418,5.030578904552385e-07,-0.00028530205599963665,8.6896934590186e-06,-12.075719833374023,61.12021255493164,0.0016671752091497183,-0.5963735580444336,-0.030367018654942513,1.748150316416286e-05
962,15.478803682934085,4.215399742126465,0.003835434326902032,9.790210723876953,-5.627091013593599e-05,0.0002222194307250902,-0.0003206884430255741,-11.998994827270508,61.11941146850586,0.0016663741553202271,-0.5965573191642761,-0.030496792867779732,0.0
963,15.488803682710568,0.4860077500343323,-0.07500164210796356,9.82767105102539,-4.5109594793757424e-05,-0.0002858164079952985,-0.0003417792613618076,-11.922221183776855,61.11860656738281,0.0016673660138621926,-0.5967530608177185,-0.030319208279252052,-3.051758903893642e-05
