frame,timestamp,x,y,z,qw,qx,qy,qz,v_x (m/s),v_y (m/s),v_z (m/s),w_x (rad/s),w_y (rad/s),w_z (rad/s),acc x (m/s^2),acc y (m/s^2),acc z (m/s^2),roll,pitch,yaw
449,10348803797,-23.800546646118164,61.24238586425781,0.09412002563476562,0.9999864410163584,0.0,-0.0,-0.005207473805720072,0.0,-0.0,-0.2939999997615814,0.0,-0.0,-0.0,0.0,-0.0,-9.800000190734863,0.0,-0.0,-0.01041499468373021
450,10358803797,-23.800546646118164,61.24238586425781,0.0902000442147255,0.9999864410163584,0.0,-0.0,-0.005207473805720072,0.0,-0.0,-0.3919999897480011,0.0,-0.0,-0.0,0.0,-0.0,-9.799999237060547,0.0,-0.0,-0.01041499468373021
451,10368803797,-23.800546646118164,61.24238586425781,0.0853000208735466,0.9999864410163584,0.0,-0.0,-0.005207473805720072,0.0,-0.0,-0.4899999797344208,0.0,-0.0,-0.0,0.0,-0.0,-9.799999237060547,0.0,-0.0,-0.01041499468373021
452,10378803796,-23.800546646118164,61.24238586425781,0.07942001521587372,0.9999864410163584,0.0,-0.0,-0.005207473805720072,0.0,-0.0,-0.5879999995231628,0.0,-0.0,-0.0,0.0,-0.0,-9.800002098083496,0.0,-0.0,-0.01041499468373021
453,10388803796,-23.800546646118164,61.24238586425781,0.07292083650827408,0.9999864410163584,0.0,-0.0,-0.005207473805720072,0.0,-0.0,-0.6499363780021667,-0.00044292787788435817,0.00018683887901715934,1.7491216808274146e-12,0.0,-0.0,-6.193637847900391,0.0,-0.0,-0.01041499468373021
454,10398803796,-23.800546646118164,61.24238586425781,0.06700301915407181,0.9999864410163584,0.0,-0.0,-0.005207473805720072,-1.0590547105948644e-07,-2.2280735265667317e-06,-0.591778039932251,-0.00021339982049539685,0.00013214298815000802,7.050624528659455e-09,-1.0590547390165739e-05,-0.00022280735720414668,5.815834045410156,0.0,-0.0,-0.01041499468373021
455,10408803796,-23.800546646118164,61.24238586425781,0.06157264485955238,0.9999864410163584,0.0,-0.0,-0.005207473805720072,-8.158038866667994e-08,-1.6871613297553267e-06,-0.5430380702018738,-0.00013878810568712652,9.76341325440444e-05,-6.086086301593241e-09,2.4325081540155225e-06,5.40912187716458e-05,4.873996734619141,0.0,-0.0,-0.01041499468373021
456,10418803796,-23.800546646118164,61.24238586425781,0.05658992752432823,0.9999864410163584,0.0,-0.0,-0.005207473805720072,-8.267785034377084e-08,-1.2283089745324105e-06,-0.49827253818511963,-0.00014844961697235703,0.00010240588017040864,-7.208138530501174e-10,-1.0974616770909051e-07,4.5885237341281027e-05,4.476552963256836,0.0,-0.0,-0.01041499468373021
457,10428803795,-23.800546646118164,61.24238586425781,0.05201831832528114,0.9999864410163584,0.0,-0.0,-0.005207473805720072,-5.606609221331382e-08,-1.3413051647148677e-06,-0.45716163516044617,-0.0001549194857943803,6.57591299386695e-05,-4.224406158215288e-09,2.661175813045702e-06,-1.129961856349837e-05,4.111090183258057,0.0,-0.0,-0.01041499468373021
458,10438803795,-23.800546646118164,61.24238586425781,0.04782421141862869,0.9999864410163584,0.0,-0.0,-0.005207473805720072,-7.199930962542567e-08,-1.0381281754234806e-06,-0.4194090962409973,-0.00012380846601445228,8.779278869042173e-05,-6.49548748121731e-11,-1.593321712789475e-06,3.0317698474391364e-05,3.7752537727355957,0.0,-0.0,-0.01041499468373021
459,10448803795,-23.800546646118164,61.24238586425781,0.04397674277424812,0.9999864410163584,0.0,-0.0,-0.005207473805720072,-3.928982295064998e-08,-7.898712510723271e-07,-0.38474470376968384,-4.078710844623856e-05,4.8532107030041516e-05,-7.156164993915581e-09,3.2709485822124407e-06,2.4825692889862694e-05,3.4664392471313477,0.0,-0.0,-0.01041499468373021
460,10458803795,-23.800546646118164,61.24238586425781,0.04044754058122635,0.9999864410163584,0.0,-0.0,-0.005207473805720072,-1.3921900965385703e-08,-1.019425326376222e-06,-0.35291948914527893,-4.36855734733399e-05,8.721744961803779e-06,-6.419996756434898e-10,2.536792180762859e-06,-2.2955407985136844e-05,3.182521343231201,0.0,-0.0,-0.01041499468373021
461,10468803794,-23.800546646118164,61.24238586425781,0.03721050173044205,0.9999864410163584,0.0,-0.0,-0.005207473805720072,-2.742442717362792e-08,-5.930476163484855e-07,-0.3237023949623108,-8.650344534544274e-05,2.9845999961253256e-05,-2.0955210899842314e-09,-1.350252659904072e-06,4.263777009327896e-05,2.9217095375061035,0.0,-0.0,-0.01041499468373021
462,10478803794,-23.800546646118164,61.24238586425781,0.034241676330566406,0.9999864410163584,0.0,-0.0,-0.005207473805720072,-2.6631786553821257e-08,-6.03267949372821e-07,-0.29688146710395813,-8.791442814981565e-05,3.0129087463137694e-05,9.852761939654897e-10,7.926406198066616e-08,-1.022033302433556e-06,2.6820926666259766,0.0,-0.0,-0.01041499468373021
463,10488803794,-23.800546646118164,61.24238586425781,0.031519051641225815,0.9999864410163584,0.0,-0.0,-0.005207473805720072,-7.808318436275385e-09,-2.375480931959828e-07,-0.2722642123699188,-5.342355871107429e-05,9.881189726002049e-06,-6.667914664859609e-09,1.8823467371476e-06,3.657198612927459e-05,2.4617254734039307,0.0,-0.0,-0.01041499468373021
464,10498803794,-23.800546646118164,61.24238586425781,0.029022330418229103,0.9999864410163584,0.0,-0.0,-0.005207473805720072,-2.56884362670462e-08,-3.9377113125738106e-07,-0.2496708184480667,-1.3951638493381324e-06,2.9424158128676936e-05,2.2256836373912847e-09,-1.7880119003166328e-06,-1.5622303180862218e-05,2.2593393325805664,0.0,-0.0,-0.01041499468373021
465,10508803794,-23.800546646118164,61.24238586425781,0.026732977479696274,0.9999864410163584,0.0,-0.0,-0.005207473805720072,8.175924826048231e-09,-1.4974915529819555e-07,-0.22893542051315308,-2.6365310077380855e-06,-1.0716315046011005e-05,-5.445114137359042e-09,3.3864359920698917e-06,2.440219759591855e-05,2.0735397338867188,0.0,-0.0,-0.01041499468373021
466,10518803793,-23.800546646118164,61.24238586425781,0.024633903056383133,0.9999864410163584,0.0,-0.0,-0.005207473805720072,7.048307715251667e-09,-1.260954576309814e-07,-0.2099071443080902,-1.6482401861139806e-06,-1.1807245755335316e-05,-1.1950742617727883e-09,-1.1276171107965638e-07,2.3653697098779958e-06,1.9028276205062866,0.0,-0.0,-0.01041499468373021
467,10528803793,-23.800546646118164,61.24238586425781,0.022709425538778305,0.9999864410163584,0.0,-0.0,-0.005207473805720072,-2.4151528776883424e-08,-2.218306320855845e-07,-0.19244834780693054,1.028715587381157e-06,2.8107784601161256e-05,5.947991432719846e-09,-3.1199836030282313e-06,-9.573517672833987e-06,1.7458796501159668,0.0,-0.0,-0.01041499468373021
468,10538803793,-23.800546646118164,61.24238586425781,0.020945128053426743,0.9999864410163584,0.0,-0.0,-0.005207473805720072,-4.351480509257044e-09,-1.630790613660338e-08,-0.17642852663993835,-4.970434383722022e-05,8.070443982433062e-06,-2.6515574180763224e-09,1.9800047539320076e-06,2.055227196251508e-05,1.6019821166992188,0.0,-0.0,-0.01041499468373021
469,10548803793,-23.800546646118164,61.24238586425781,0.019327811896800995,0.9999864410163584,0.0,-0.0,-0.005207473805720072,-1.9918319438261278e-08,-3.462357511807568e-08,-0.16173233091831207,3.190813004039228e-06,2.6527579393587075e-05,3.413084814773981e-10,-1.5566838555969298e-06,-1.831566919463512e-06,1.4696195125579834,0.0,-0.0,-0.01041499468373021
470,10558803792,-23.800546646118164,61.24238586425781,0.017845306545495987,0.9999864410163584,0.0,-0.0,-0.005207473805720072,-2.0696779845508217e-09,7.225104781127811e-08,-0.14825032651424408,4.1894516471074894e-05,5.220606453804066e-06,-4.949108234342248e-09,1.7848641391537967e-06,1.068746223609196e-05,1.3482004404067993,0.0,-0.0,-0.01041499468373021
471,10568803792,-23.800546646118164,61.24238586425781,0.016486473381519318,0.9999864410163584,0.0,-0.0,-0.005207473805720072,-5.223843579926779e-09,-2.144813038285065e-07,-0.1358819454908371,4.4866144889965653e-05,3.952280621888349e-06,3.288766592390857e-09,-3.154165710839152e-07,-2.867323564714752e-05,1.2368381023406982,0.0,-0.0,-0.01041499468373021
472,10578803792,-23.800546646118164,61.24238586425781,0.015241088345646858,0.9999864410163584,0.0,-0.0,-0.005207473805720072,-2.805967902475004e-09,-3.6460210850464136e-08,-0.1245381310582161,-3.090599420829676e-05,3.867647592414869e-06,-8.19705248122915e-10,2.4178757485060487e-07,1.7802109141484834e-05,1.1343814134597778,0.0,-0.0,-0.01041499468373021
473,10588803792,-23.800546646118164,61.24238586425781,0.014099731110036373,0.9999864410163584,0.0,-0.0,-0.005207473805720072,2.811366783816993e-08,-8.61013802477828e-08,-0.1141342893242836,-4.345309207565151e-05,-3.7802841688971967e-05,-5.0182231703388425e-09,3.0919636628823355e-06,-4.964117124472978e-06,1.0403841733932495,0.0,-0.0,-0.01041499468373021
474,10598803792,-23.800546646118164,61.24238586425781,0.013053817674517632,0.9999864410163584,0.0,-0.0,-0.005207473805720072,-1.7622614478796095e-08,-4.729375557843696e-09,-0.10459193587303162,8.724347026145551e-06,2.056898665614426e-05,3.288461281059085e-09,-4.573628302750876e-06,8.137200893543195e-06,0.954235315322876,0.0,-0.0,-0.01041499468373021
475,10608803791,-23.800546646118164,61.24238586425781,0.01209537498652935,0.9999864410163584,0.0,-0.0,-0.005207473805720072,3.4984395935744317e-10,-6.019207887675293e-08,-0.09584266692399979,-4.066432666149922e-05,4.942025952914264e-07,1.0829820373814414e-09,1.7972458863368956e-06,-5.546270131162601e-06,0.8749269247055054,0.0,-0.0,-0.01041499468373021
476,10618803791,-23.800546646118164,61.24238586425781,0.011217193678021431,0.9999864410163584,0.0,-0.0,-0.005207473805720072,-1.3290661016185368e-08,8.488692060382164e-08,-0.08781852573156357,1.1299527614028193e-05,1.8743734472081997e-05,4.283133570037734e-10,-1.3640504903378314e-06,1.4507900232274551e-05,0.8024141192436218,0.0,-0.0,-0.01041499468373021
477,10628803791,-23.800546646118164,61.24238586425781,0.010412558913230896,0.9999864410163584,0.0,-0.0,-0.005207473805720072,3.089368050268604e-08,-1.955240946927006e-07,-0.08046261966228485,5.101487477077171e-05,-4.29420470027253e-05,-2.5908097889271176e-09,4.418433945829747e-06,-2.804110226861667e-05,0.7355905771255493,0.0,-0.0,-0.01041499468373021
478,10638803791,-23.800546646118164,61.24238586425781,0.009675368666648865,0.9999864410163584,0.0,-0.0,-0.005207473805720072,4.112734874883728e-10,8.464802192520438e-09,-0.07371748983860016,-3.7565358070423827e-05,-2.9360910502873594e-06,2.544129573678333e-09,-3.048240841962979e-06,2.039888931903988e-05,0.6745129823684692,0.0,-0.0,-0.01041499468373021
479,10648803790,-23.800546646118164,61.24238586425781,0.009000015445053577,0.9999864410163584,0.0,-0.0,-0.005207473805720072,-1.2759691969677078e-08,4.265388753310617e-08,-0.06753383576869965,1.4818649106018711e-05,1.7068463421310298e-05,1.024520190906486e-10,-1.317096575803589e-06,3.4189085909019923e-06,0.6183654069900513,0.0,-0.0,-0.01041499468373021
480,10658803790,-23.800546646118164,61.24238586425781,0.008381347171962261,0.9999864410163584,0.0,-0.0,-0.005207473805720072,1.7315555211894207e-08,-8.041902788136213e-08,-0.06186594441533089,1.6816589777590707e-05,-2.309964293090161e-05,-7.889142672468097e-10,3.007524810527684e-06,-1.2307290489843581e-05,0.5667891502380371,0.0,-0.0,-0.01041499468373021
481,10668803790,-23.800546646118164,61.24238586425781,0.007814674638211727,0.9999864410163584,0.0,-0.0,-0.005207473805720072,-1.2136915472638066e-08,1.0246388626455882e-07,-0.056669194251298904,1.772876021277625e-05,1.5802183042978868e-05,2.4895774330957465e-09,-2.945247160823783e-06,1.8288292267243378e-05,0.5196750164031982,0.0,-0.0,-0.01041499468373021
482,10678803790,-23.800546646118164,61.24238586425781,0.0072956085205078125,0.9999864410163584,0.0,-0.0,-0.005207473805720072,1.9459891476003577e-08,-5.2499540714734394e-08,-0.051906976848840714,1.982775575015694e-05,-2.5714720322866924e-05,-8.527512029843365e-10,3.1596805456501897e-06,-1.5496343621634878e-05,0.4762217402458191,0.0,-0.0,-0.01041499468373021
483,10688803789,-23.800546646118164,61.24238586425781,0.006820182781666517,0.9999864410163584,0.0,-0.0,-0.005207473805720072,2.312275482196924e-09,-5.879631359562154e-08,-0.04754270613193512,-3.003523488587234e-05,-5.289843102218583e-06,3.787526736687141e-09,-1.714761651783192e-06,-6.296772880887147e-07,0.4364270567893982,0.0,-0.0,-0.01041499468373021
484,10698803789,-23.800546646118164,61.24238586425781,0.006384773179888725,0.9999864410163584,0.0,-0.0,-0.005207473805720072,-1.229577684114247e-08,-1.0374635905918694e-07,-0.04354188218712807,2.2062673451728188e-05,1.4229416592570487e-05,2.530049281190827e-09,-1.4608052651965409e-06,-4.495004759519361e-06,0.40008240938186646,0.0,-0.0,-0.01041499468373021
485,10708803789,-23.800546646118164,61.24238586425781,0.005986022762954235,0.9999864410163584,0.0,-0.0,-0.005207473805720072,1.8887856612082032e-08,-1.48240914654707e-07,-0.03987563028931618,2.2102214643382467e-05,-2.638130717969034e-05,-1.9667341089046886e-09,3.1183631108433474e-06,-4.449455445865169e-06,0.36662518978118896,0.0,-0.0,-0.01041499468373021
486,10718803789,-23.800546646118164,61.24238586425781,0.00562084186822176,0.9999864410163584,0.0,-0.0,-0.005207473805720072,-1.1441959379965283e-08,3.107043156092004e-08,-0.03651659935712814,2.2177360733621754e-05,1.3633673916046973e-05,1.787722858637153e-09,-3.0329815672303084e-06,1.793113369785715e-05,0.3359031081199646,0.0,-0.0,-0.01041499468373021
487,10728803789,-23.800546646118164,61.24238586425781,0.005286483559757471,0.9999864410163584,0.0,-0.0,-0.005207473805720072,2.5255906255239324e-09,-3.085698949689686e-07,-0.03343768045306206,-2.6879730285145342e-05,-6.446559837058885e-06,2.742604809924387e-09,1.3967550103188842e-06,-3.396403189981356e-05,0.3078919053077698,0.0,-0.0,-0.01041499468373021
488,10738803788,-23.800546646118164,61.24238586425781,0.004980315919965506,0.9999864410163584,0.0,-0.0,-0.005207473805720072,3.550196359114466e-09,-1.183860547371296e-07,-0.030616359785199165,-2.785989454423543e-05,-6.493499768112088e-06,8.181355592995487e-11,1.0246057513541018e-07,1.9018383682123385e-05,0.2821320593357086,0.0,-0.0,-0.01041499468373021
489,10748803788,-23.800546646118164,61.24238586425781,0.004699973855167627,0.9999864410163584,0.0,-0.0,-0.005207473805720072,-1.0506440162316721e-08,-1.0791528559650487e-08,-0.028032369911670685,2.3066351786837913e-05,1.3088181731291115e-05,-7.990729744555836e-10,-1.4056636246095877e-06,1.0759452379716095e-05,0.25839897990226746,0.0,-0.0,-0.01041499468373021
490,10758803788,-23.800546646118164,61.24238586425781,0.004443320911377668,0.9999864410163584,0.0,-0.0,-0.005207473805720072,4.4725116943311605e-09,-1.2731365472973266e-07,-0.025666169822216034,-2.7105166736873798e-05,-6.525020580738783e-06,-7.373797406007299e-11,1.4978951412558672e-06,-1.1652212378976401e-05,0.2366200089454651,0.0,-0.0,-0.01041499468373021
491,10768803788,-23.800546646118164,61.24238586425781,0.004208335652947426,0.9999864410163584,0.0,-0.0,-0.005207473805720072,-1.1368294750013774e-08,-9.374949883067529e-08,-0.023497648537158966,2.4431723431916907e-05,1.3103793207847048e-05,2.3193220677342197e-09,-1.5840805644984357e-06,3.3564156183274463e-06,0.2168521285057068,0.0,-0.0,-0.01041499468373021
492,10778803787,-23.800546646118164,61.24238586425781,0.003993224818259478,0.9999864410163584,0.0,-0.0,-0.005207473805720072,-1.0618409262974637e-08,-1.295044000926282e-07,-0.021510815247893333,2.4926810510805808e-05,1.2939367479702923e-05,1.1982747016858752e-09,7.498854870391369e-08,-3.5754901546170004e-06,0.19868332147598267,0.0,-0.0,-0.01041499468373021
493,10788803787,-23.800546646118164,61.24238586425781,0.0037963103968650103,0.9999864410163584,0.0,-0.0,-0.005207473805720072,2.3107542546085824e-09,-4.047844299748249e-07,-0.019691186025738716,-2.5699955585878342e-05,-7.481903594452888e-06,1.8472470220132209e-09,1.2929162949149031e-06,-2.7528003556653857e-05,0.18196292221546173,0.0,-0.0,-0.01041499468373021
494,10798803787,-23.800546646118164,61.24238586425781,0.003616065951064229,0.9999864410163584,0.0,-0.0,-0.005207473805720072,1.967792861989892e-08,-1.250353847126462e-07,-0.018023833632469177,-7.895445014582947e-05,-2.7530746592674404e-05,-1.975565044887162e-09,1.7367174223181792e-06,2.7974903787253425e-05,0.1667352318763733,0.0,-0.0,-0.01041499468373021
495,10808803787,-23.800546646118164,61.24238586425781,0.0034510802943259478,0.9999864410163584,0.0,-0.0,-0.005207473805720072,-1.090519585744687e-08,-6.484024339670214e-08,-0.016497468575835228,2.2661317416350357e-05,1.1416423149057664e-05,-4.6340678690193204e-12,-3.058312358916737e-06,6.019514330546372e-06,0.15263649821281433,0.0,-0.0,-0.01041499468373021
496,10818803787,-23.800546646118164,61.24238586425781,0.00330009451135993,0.9999864410163584,0.0,-0.0,-0.005207473805720072,-6.7100893730298594e-09,1.3781003360691102e-07,-0.015099982731044292,2.345065149711445e-05,1.1306094165774994e-05,-1.1568010993556754e-09,4.195106555471284e-07,2.0265028069843538e-05,0.13974858820438385,0.0,-0.0,-0.01041499468373021
497,10828803786,-23.800546646118164,61.24238586425781,0.0031618881039321423,0.9999864410163584,0.0,-0.0,-0.005207473805720072,-6.174679434423069e-09,1.7123733186963364e-07,-0.013819627463817596,2.5315159291494638e-05,1.110223001887789e-05,-2.23753196526566e-10,5.354099386067901e-08,3.3427297694288427e-06,0.1280355304479599,0.0,-0.0,-0.01041499468373021
498,10838803786,-23.800546646118164,61.24238586425781,0.003035430796444416,0.9999864410163584,0.0,-0.0,-0.005207473805720072,-7.136435442589573e-09,9.363886022129009e-08,-0.0126472944393754,2.7219664843869396e-05,1.1275331416982226e-05,-4.2323558546719653e-10,-9.617559726393665e-08,-7.759846994304098e-06,0.11723330616950989,0.0,-0.0,-0.01041499468373021
499,10848803786,-23.800546646118164,61.24238586425781,0.002919693011790514,0.9999864410163584,0.0,-0.0,-0.005207473805720072,2.2037642821715053e-08,-8.516008165315725e-08,-0.011573800817131996,-7.379300950560719e-05,-2.8866259526694193e-05,-1.3744416715866237e-09,2.917407755376189e-06,-1.7879894585348666e-05,0.10734936594963074,0.0,-0.0,-0.01041499468373021
500,10858803786,-23.800546646118164,61.24238586425781,0.002813796978443861,0.9999864410163584,0.0,-0.0,-0.005207473805720072,6.8194161428891675e-09,6.57383694147029e-08,-0.0105905057862401,-2.328393020434305e-05,-9.878068340185564e-06,-1.1679123224084265e-09,-1.521822696304298e-06,1.5089844055182766e-05,0.09832949936389923,0.0,-0.0,-0.01041499468373021
501,10868803785,-23.800546646118164,61.24238586425781,0.0027168653905391693,0.9999864410163584,0.0,-0.0,-0.005207473805720072,-6.375835859273593e-09,1.3455378677917906e-07,-0.00969135295599699,2.8521122658276e-05,9.293127732235007e-06,1.1812579560344094e-11,-1.3195251540309982e-06,6.881541594339069e-06,0.08991528302431107,0.0,-0.0,-0.01041499468373021
502,10878803785,-23.800546646118164,61.24238586425781,0.002628173679113388,0.9999864410163584,0.0,-0.0,-0.005207473805720072,9.838940329132129e-09,1.074101376730141e-07,-0.008867616765201092,-2.1532559912884608e-05,-1.0725472748163156e-05,-2.3862933851148682e-09,1.6214777360801236e-06,-2.7143648821947863e-06,0.08237361907958984,0.0,-0.0,-0.01041499468373021
503,10888803785,-23.800546646118164,61.24238586425781,0.002547035226598382,0.9999864410163584,0.0,-0.0,-0.005207473805720072,-7.152294756451738e-09,-2.4430823586385486e-08,-0.008113260380923748,3.122278212686069e-05,8.110243470582645e-06,2.938156606901998e-09,-1.6991234588203952e-06,-1.3184096133045387e-05,0.07543563842773438,0.0,-0.0,-0.01041499468373021
504,10898803785,-23.800546646118164,61.24238586425781,0.0024728011339902878,0.9999864410163584,0.0,-0.0,-0.005207473805720072,1.0102252367971687e-08,1.0144626116925792e-07,-0.007422056049108505,-2.0024566765641794e-05,-1.125056587625295e-05,-2.976415336419791e-09,1.7254545809919364e-06,1.2587707715283614e-05,0.06912043690681458,0.0,-0.0,-0.01041499468373021
505,10908803785,-23.800546646118164,61.24238586425781,0.0024048995692282915,0.9999864410163584,0.0,-0.0,-0.005207473805720072,-5.651858092647899e-09,1.6131266988850257e-07,-0.006789665203541517,3.213765739928931e-05,8.643135515740141e-06,2.768943130337931e-10,-1.5754110336274607e-06,5.986640644550789e-06,0.06323908269405365,0.0,-0.0,-0.01041499468373021
506,10918803784,-23.800546646118164,61.24238586425781,0.0023427961859852076,0.9999864410163584,0.0,-0.0,-0.005207473805720072,9.284301327738831e-09,5.0306894650020695e-08,-0.006211747881025076,-1.7060167010640725e-05,-1.087006057787221e-05,6.353269021985852e-10,1.4936158549971879e-06,-1.1100577467004769e-05,0.057791732251644135,0.0,-0.0,-0.01041499468373021
507,10928803784,-23.800546646118164,61.24238586425781,0.0022859573364257812,0.9999864410163584,0.0,-0.0,-0.005207473805720072,-5.893921350974551e-09,1.7149874054211978e-07,-0.005683002527803183,3.4569289709907025e-05,9.109146958508063e-06,6.192380636038664e-11,-1.5178222838585498e-06,1.2119184248149395e-05,0.05287453532218933,0.0,-0.0,-0.01041499468373021
508,10938803784,-23.800546646118164,61.24238586425781,0.002233962994068861,0.9999864410163584,0.0,-0.0,-0.005207473805720072,8.340061974365653e-09,-2.684265609786962e-08,-0.00519810663536191,-1.4848902537778486e-05,-1.0672411917767022e-05,2.7311580774735944e-10,1.423398316546809e-06,-1.9834140402963385e-05,0.048489589244127274,0.0,-0.0,-0.01041499468373021
509,10948803784,-23.800546646118164,61.24238586425781,0.002186431782320142,0.9999864410163584,0.0,-0.0,-0.005207473805720072,7.684579195199603e-09,-3.470010501160914e-09,-0.004754247609525919,-1.4572796317224856e-05,-1.0811135325639043e-05,7.239049359952787e-10,-6.5548277916605e-08,2.3372645046038087e-06,0.04438590258359909,0.0,-0.0,-0.01041499468373021
510,10958803783,-23.800546646118164,61.24238586425781,0.002142944373190403,0.9999864410163584,0.0,-0.0,-0.005207473805720072,7.119980161007788e-09,-9.151979440957803e-08,-0.004348478280007839,-1.4412884411285631e-05,-1.1325521882099565e-05,3.6888628263120893e-10,-5.64599034191815e-08,-8.80497827893123e-06,0.040576934814453125,0.0,-0.0,-0.01041499468373021
511,10968803783,-23.800546646118164,61.24238586425781,0.0021031571086496115,0.9999864410163584,0.0,-0.0,-0.005207473805720072,8.828878073074975e-09,7.482360331323434e-08,-0.0039771366864442825,-1.554276423121337e-05,-1.1315763003949542e-05,-2.55232812662598e-09,1.7088979120671866e-07,1.6634339772281237e-05,0.03713415935635567,0.0,-0.0,-0.01041499468373021
512,10978803783,-23.800546646118164,61.24238586425781,0.0020668029319494963,0.9999864410163584,0.0,-0.0,-0.005207473805720072,-6.0700702242399984e-09,9.12052087187476e-08,-0.0036372279282659292,3.5965058486908674e-05,8.152957889251411e-06,-3.7237138372780976e-10,-1.4898947711117216e-06,1.6381604837079067e-06,0.033990874886512756,0.0,-0.0,-0.01041499468373021
513,10988803783,-23.800546646118164,61.24238586425781,0.0020335388835519552,0.9999864410163584,0.0,-0.0,-0.005207473805720072,-4.5591361796937235e-09,1.4700623296448612e-07,-0.0033267878461629152,3.6549565265886486e-05,8.258006346295588e-06,-1.1084645423764528e-09,1.5109340267827065e-07,5.580102424573852e-06,0.0310440082103014,0.0,-0.0,-0.01041499468373021
514,10998803783,-23.800546646118164,61.24238586425781,0.00200309744104743,0.9999864410163584,0.0,-0.0,-0.005207473805720072,-6.144205588753948e-09,-1.771874380551708e-08,-0.003042306751012802,3.8174774090293795e-05,8.109311238513328e-06,1.8158596848394382e-09,-1.5850693557695195e-07,-1.647249882807955e-05,0.028448108583688736,0.0,-0.0,-0.01041499468373021
515,11008803782,-23.800546646118164,61.24238586425781,0.0019752883818000555,0.9999864410163584,0.0,-0.0,-0.005207473805720072,9.80099645886412e-09,6.129594254389303e-08,-0.002782354364171624,-1.2558011803776026e-05,-1.1446331882325467e-05,-9.486481045151152e-11,1.5945201994327363e-06,7.901468052295968e-06,0.02599523961544037,0.0,-0.0,-0.01041499468373021
516,11018803782,-23.800546646118164,61.24238586425781,0.0019498442998155951,0.9999864410163584,0.0,-0.0,-0.005207473805720072,-7.580552185970646e-09,-7.014786262971029e-08,-0.002544345799833536,-5.01384238305036e-05,8.852934115566313e-06,2.292744882836928e-09,-1.7381548786943313e-06,-1.3144381227903068e-05,0.023800857365131378,0.0,-0.0,-0.01041499468373021
517,11028803782,-23.800546646118164,61.24238586425781,0.0019265746232122183,0.9999864410163584,0.0,-0.0,-0.005207473805720072,1.0666253658087044e-08,1.4363125444560865e-07,-0.00232695578597486,-1.3366649000090547e-05,-1.1493474630697165e-05,-4.579368884094492e-09,1.8246804529553629e-06,2.1377911252784543e-05,0.02173900231719017,0.0,-0.0,-0.01041499468373021
518,11038803782,-23.800546646118164,61.24238586425781,0.0019052886636927724,0.9999864410163584,0.0,-0.0,-0.005207473805720072,-5.671679126351137e-09,1.14383190918943e-07,-0.0021267414558678865,3.8708407373633236e-05,7.941865987959318e-06,-9.32888419291622e-11,-1.6337932038368308e-06,-2.9248062674014363e-06,0.020021433010697365,0.0,-0.0,-0.01041499468373021
519,11048803781,-23.800546646118164,61.24238586425781,0.0018858336843550205,0.9999864410163584,0.0,-0.0,-0.005207473805720072,-5.078021558801993e-09,8.513669769172338e-08,-0.0019445704529061913,4.02313526137732e-05,8.038916348596103e-06,1.8490121656000724e-09,5.93657567549144e-08,-2.9246493795653805e-06,0.018217099830508232,0.0,-0.0,-0.01041499468373021
520,11058803781,-23.800546646118164,61.24238586425781,0.0018680571811273694,0.9999864410163584,0.0,-0.0,-0.005207473805720072,-5.850808282303888e-09,-3.753309218978984e-09,-0.0017772387946024537,4.118133074371144e-05,7.8690118243685e-06,1.5094148153593778e-09,-7.727867057383264e-08,-8.889000127965119e-06,0.016733165830373764,0.0,-0.0,-0.01041499468373021
521,11068803781,-23.800546646118164,61.24238586425781,0.0018680571811273694,0.9999864410163584,0.0,-0.0,-0.005207473805720072,0.0,-0.0,0.0,0.0,-0.0,-0.0,5.850808406648866e-07,3.753309272269689e-07,0.17772388458251953,0.0,-0.0,-0.01041499468373021
522,11078803781,-23.800546646118164,61.24238586425781,0.0018680571811273694,0.9999864410163584,0.0,-0.0,-0.005207473805720072,0.0,-0.0,0.0,0.0,-0.0,-0.0,0.0,-0.0,0.0,0.0,-0.0,-0.01041499468373021
523,11088803781,-23.800546646118164,61.24238586425781,0.0018680571811273694,0.9999864410163584,0.0,-0.0,-0.005207473805720072,0.0,-0.0,0.0,0.0,-0.0,-0.0,0.0,-0.0,0.0,0.0,-0.0,-0.01041499468373021
524,11098803780,-23.800546646118164,61.24238586425781,0.0018680571811273694,0.9999864410163584,0.0,-0.0,-0.005207473805720072,0.0,-0.0,0.0,0.0,-0.0,-0.0,0.0,-0.0,0.0,0.0,-0.0,-0.01041499468373021
525,11108803780,-23.800546646118164,61.24238586425781,0.0018680571811273694,0.9999864410163584,0.0,-0.0,-0.005207473805720072,0.0,-0.0,0.0,0.0,-0.0,-0.0,0.0,-0.0,0.0,0.0,-0.0,-0.01041499468373021
526,11118803780,-23.800546646118164,61.24238586425781,0.0018680571811273694,0.9999864410163584,0.0,-0.0,-0.005207473805720072,0.0,-0.0,0.0,0.0,-0.0,-0.0,0.0,-0.0,0.0,0.0,-0.0,-0.01041499468373021
527,11128803780,-23.800546646118164,61.24238586425781,0.0018680571811273694,0.9999864410163584,0.0,-0.0,-0.005207473805720072,0.0,-0.0,0.0,0.0,-0.0,-0.0,0.0,-0.0,0.0,0.0,-0.0,-0.01041499468373021
528,11138803779,-23.800546646118164,61.24238586425781,0.0018680571811273694,0.9999864410163584,0.0,-0.0,-0.005207473805720072,0.0,-0.0,0.0,0.0,-0.0,-0.0,0.0,-0.0,0.0,0.0,-0.0,-0.01041499468373021
529,11148803779,-23.800546646118164,61.24238586425781,0.0018680571811273694,0.9999864410163584,0.0,-0.0,-0.005207473805720072,0.0,-0.0,0.0,0.0,-0.0,-0.0,0.0,-0.0,0.0,0.0,-0.0,-0.01041499468373021
530,11158803779,-23.800546646118164,61.24238586425781,0.0018680571811273694,0.9999864410163584,0.0,-0.0,-0.005207473805720072,0.0,-0.0,0.0,0.0,-0.0,-0.0,0.0,-0.0,0.0,0.0,-0.0,-0.01041499468373021
531,11168803779,-23.800546646118164,61.24238586425781,0.0018680571811273694,0.9999864410163584,0.0,-0.0,-0.005207473805720072,0.0,-0.0,0.0,0.0,-0.0,-0.0,0.0,-0.0,0.0,0.0,-0.0,-0.01041499468373021
532,11178803779,-23.800546646118164,61.24238586425781,0.0018680571811273694,0.9999864410163584,0.0,-0.0,-0.005207473805720072,0.0,-0.0,0.0,0.0,-0.0,-0.0,0.0,-0.0,0.0,0.0,-0.0,-0.01041499468373021
533,11188803778,-23.800546646118164,61.24238586425781,0.0018680571811273694,0.9999864410163584,0.0,-0.0,-0.005207473805720072,0.0,-0.0,0.0,0.0,-0.0,-0.0,0.0,-0.0,0.0,0.0,-0.0,-0.01041499468373021
534,11198803778,-23.800546646118164,61.24238586425781,0.0018680571811273694,0.9999864410163584,0.0,-0.0,-0.005207473805720072,0.0,-0.0,0.0,0.0,-0.0,-0.0,0.0,-0.0,0.0,0.0,-0.0,-0.01041499468373021
535,11208803778,-23.800546646118164,61.24238586425781,0.0018680571811273694,0.9999864410163584,0.0,-0.0,-0.005207473805720072,0.0,-0.0,0.0,0.0,-0.0,-0.0,0.0,-0.0,0.0,0.0,-0.0,-0.01041499468373021
536,11218803778,-23.800546646118164,61.24238586425781,0.0018680571811273694,0.9999864410163584,0.0,-0.0,-0.005207473805720072,0.0,-0.0,0.0,0.0,-0.0,-0.0,0.0,-0.0,0.0,0.0,-0.0,-0.01041499468373021
537,11228803777,-23.800546646118164,61.24238586425781,0.0018680571811273694,0.9999864410163584,0.0,-0.0,-0.005207473805720072,0.0,-0.0,0.0,0.0,-0.0,-0.0,0.0,-0.0,0.0,0.0,-0.0,-0.01041499468373021
538,11238803777,-23.800546646118164,61.24238586425781,0.0018680571811273694,0.9999864410163584,0.0,-0.0,-0.005207473805720072,0.0,-0.0,0.0,0.0,-0.0,-0.0,0.0,-0.0,0.0,0.0,-0.0,-0.01041499468373021
539,11248803777,-23.800546646118164,61.24238586425781,0.0018680571811273694,0.9999864410163584,0.0,-0.0,-0.005207473805720072,0.0,-0.0,0.0,0.0,-0.0,-0.0,0.0,-0.0,0.0,0.0,-0.0,-0.01041499468373021
540,11258803777,-23.800546646118164,61.24238586425781,0.0018680571811273694,0.9999864410163584,0.0,-0.0,-0.005207473805720072,0.0,-0.0,0.0,0.0,-0.0,-0.0,0.0,-0.0,0.0,0.0,-0.0,-0.01041499468373021
541,11268803777,-23.800546646118164,61.24238586425781,0.0018680571811273694,0.9999864410163584,0.0,-0.0,-0.005207473805720072,0.0,-0.0,0.0,0.0,-0.0,-0.0,0.0,-0.0,0.0,0.0,-0.0,-0.01041499468373021
542,11278803776,-23.800546646118164,61.24238586425781,0.0018680571811273694,0.9999864410163584,0.0,-0.0,-0.005207473805720072,0.0,-0.0,0.0,0.0,-0.0,-0.0,0.0,-0.0,0.0,0.0,-0.0,-0.01041499468373021
543,11288803776,-23.800546646118164,61.24238586425781,0.0018680571811273694,0.9999864410163584,0.0,-0.0,-0.005207473805720072,0.0,-0.0,0.0,0.0,-0.0,-0.0,0.0,-0.0,0.0,0.0,-0.0,-0.01041499468373021
544,11298803776,-23.800546646118164,61.24238586425781,0.0018680571811273694,0.9999864410163584,0.0,-0.0,-0.005207473805720072,0.0,-0.0,0.0,0.0,-0.0,-0.0,0.0,-0.0,0.0,0.0,-0.0,-0.01041499468373021
545,11308803776,-23.800546646118164,61.24238586425781,0.0018680571811273694,0.9999864410163584,0.0,-0.0,-0.005207473805720072,0.0,-0.0,0.0,0.0,-0.0,-0.0,0.0,-0.0,0.0,0.0,-0.0,-0.01041499468373021
546,11318803775,-23.800546646118164,61.24238586425781,0.0018680571811273694,0.9999864410163584,0.0,-0.0,-0.005207473805720072,0.0,-0.0,0.0,0.0,-0.0,-0.0,0.0,-0.0,0.0,0.0,-0.0,-0.01041499468373021
547,11328803775,-23.800546646118164,61.24238586425781,0.0018680571811273694,0.9999864410163584,0.0,-0.0,-0.005207473805720072,0.0,-0.0,0.0,0.0,-0.0,-0.0,0.0,-0.0,0.0,0.0,-0.0,-0.01041499468373021
548,11338803775,-23.800546646118164,61.24238586425781,0.0018680571811273694,0.9999864410163584,0.0,-0.0,-0.005207473805720072,0.0,-0.0,0.0,0.0,-0.0,-0.0,0.0,-0.0,0.0,0.0,-0.0,-0.01041499468373021
549,11348803775,-23.800546646118164,61.24238586425781,0.0018680571811273694,0.9999864410163584,0.0,-0.0,-0.005207473805720072,0.0,-0.0,0.0,0.0,-0.0,-0.0,0.0,-0.0,0.0,0.0,-0.0,-0.01041499468373021
550,11358803775,-23.800546646118164,61.24238586425781,0.0018058394780382514,0.9999864410163584,0.0,-0.0,-0.005207473805720072,9.971101277983507e-09,-4.826883355235623e-07,-0.006220826879143715,-4.7742840251885355e-05,-1.9420111129875295e-05,5.676411785060509e-09,9.971100780603592e-07,-4.82688337797299e-05,-0.6220827102661133,0.0,-0.0,-0.01041499468373021
551,11368803774,-23.800546646118164,61.24238586425781,0.001753158518113196,0.9999864410163584,0.0,-0.0,-0.005207473805720072,1.13952882685453e-08,-2.7123249424221285e-07,-0.005266389809548855,-4.8994716053130105e-05,-1.970763514691498e-05,-5.025912325207216e-11,1.4241869905617932e-07,2.1145584469195455e-05,0.0954437106847763,0.0,-0.0,-0.01041499468373021
552,11378803774,-23.800546646118164,61.24238586425781,0.0017088699387386441,0.9999864410163584,0.0,-0.0,-0.005207473805720072,-5.187863472144727e-09,-3.814355125086877e-07,-0.004429788328707218,-1.0306698641215917e-05,3.235917915844766e-07,4.262926012188473e-09,-1.6583151136728702e-06,-1.1020301826647483e-05,0.08366014808416367,0.0,-0.0,-0.01041499468373021
553,11388803774,-23.800546646118164,61.24238586425781,0.001671867328695953,0.9999864410163584,0.0,-0.0,-0.005207473805720072,-1.859381626445611e-08,-3.163067958666943e-07,-0.0037020014133304358,-4.870063276030123e-05,2.079546538880095e-05,2.088535788757895e-09,-1.340595304100134e-06,6.5128715505125e-06,0.07277869433164597,0.0,-0.0,-0.01041499468373021
554,11398803774,-23.800546646118164,61.24238586425781,0.0016411590622738004,0.9999864410163584,0.0,-0.0,-0.005207473805720072,-2.092228834627008e-09,-2.56071274407077e-07,-0.003069124184548855,2.1786179331684252e-06,5.76678246488882e-07,-1.1909312425117946e-09,1.6501587651873706e-06,6.0235520322748926e-06,0.06328772008419037,0.0,-0.0,-0.01041499468373021
555,11408803773,-23.800546646118164,61.24238586425781,0.001615982037037611,0.9999864410163584,0.0,-0.0,-0.005207473805720072,1.2623243783593807e-08,-1.949082530927626e-07,-0.0025176142808049917,-4.834458013647236e-05,-1.887437974801287e-05,5.919330303694181e-11,1.4715471934323432e-06,6.116302301961696e-06,0.055150989443063736,0.0,-0.0,-0.01041499468373021
556,11418803773,-23.800546646118164,61.24238586425781,0.001595573383383453,0.9999864410163584,0.0,-0.0,-0.005207473805720072,-2.2953190459418238e-09,-5.783239842571675e-08,-0.0020397661719471216,2.8349934382276842e-06,9.195719030685723e-07,-1.923599300679424e-11,-1.4918562101229327e-06,1.3707585821975954e-05,0.04778481274843216,0.0,-0.0,-0.01041499468373021
557,11428803773,-23.800546646118164,61.24238586425781,0.00157928466796875,0.9999864410163584,0.0,-0.0,-0.005207473805720072,-1.4256752445263032e-09,-3.089204980710747e-08,-0.001627912512049079,4.374736818135716e-06,1.448475359211443e-06,2.599657988877624e-10,8.696437703292759e-08,2.694034947126056e-06,0.04118536412715912,0.0,-0.0,-0.01041499468373021
558,11438803773,-23.800546646118164,61.24238586425781,0.0015665816608816385,0.9999864410163584,0.0,-0.0,-0.005207473805720072,-1.7672799890178226e-09,-4.137302767048823e-08,-0.0012720966478809714,5.795359811600065e-06,1.8147542277802131e-06,3.329414521857643e-10,-3.4160475337330354e-08,-1.04809782897064e-06,0.03558158501982689,0.0,-0.0,-0.01041499468373021
559,11448803773,-23.800546646118164,61.24238586425781,0.0015569304814562201,0.9999864410163584,0.0,-0.0,-0.005207473805720072,-1.8122935374620397e-09,-1.0363985225581018e-08,-0.000966682389844209,7.20629577699583e-06,2.3161308035923867e-06,3.481659682780247e-10,-4.501354844421712e-09,3.1009044505481143e-06,0.030541425570845604,0.0,-0.0,-0.01041499468373021
560,11458803772,-23.800546646118164,61.24238586425781,0.0015498732682317495,0.9999864410163584,0.0,-0.0,-0.005207473805720072,-1.938204041707081e-09,2.365229123668655e-09,-0.0007063674856908619,-4.356279987405287e-06,2.8150629987067077e-06,4.2031106373130456e-10,-1.2591049980414937e-08,1.2729213949569385e-06,0.0260314904153347,0.0,-0.0,-0.01041499468373021
561,11468803772,-23.800546646118164,61.24238586425781,0.0015450286446139216,0.9999864410163584,0.0,-0.0,-0.005207473805720072,-2.098013540674515e-09,2.2585782133432986e-08,-0.00048538207192905247,1.0140965059690643e-05,3.182947239110945e-06,-5.501584188216668e-10,-1.5980949896743368e-08,2.022055241468479e-06,0.022098541259765625,0.0,-0.0,-0.01041499468373021
562,11478803772,-23.800546646118164,61.24238586425781,0.001542053185403347,0.9999864410163584,0.0,-0.0,-0.005207473805720072,-3.577971696699933e-09,-1.0599626421026187e-07,-0.0002961349382530898,1.2250357940501999e-05,3.3812325455073733e-06,2.4037978274549232e-09,-1.4799582004343392e-07,-1.2858204172516707e-05,0.018924713134765625,0.0,-0.0,-0.01041499468373021
563,11488803772,-23.800546646118164,61.24238586425781,0.0015406799502670765,0.9999864410163584,0.0,-0.0,-0.005207473805720072,-2.4135442533435025e-09,4.3915260761195896e-08,-0.0001366138458251953,1.3039760233368725e-05,3.915066372428555e-06,3.166795492504093e-09,1.164427416711078e-07,1.4991152966103982e-05,0.015952108427882195,0.0,-0.0,-0.01041499468373021
564,11498803771,-23.800546646118164,61.24238586425781,0.0015406799502670765,0.9999864410163584,0.0,-0.0,-0.005207473805720072,-3.4620653011074864e-09,-4.587053226146054e-08,-3.0994415283203125e-06,1.647850808694784e-06,4.2233496060362086e-06,1.7215606717968512e-10,-1.0485210566457681e-07,-8.97857898962684e-06,0.0133514404296875,0.0,-0.0,-0.01041499468373021
565,11508803771,-23.800546646118164,61.24238586425781,0.0015417098766192794,0.9999864410163584,0.0,-0.0,-0.005207473805720072,1.264968219061302e-08,7.508028687652768e-08,0.00010643959103617817,-3.6035784432897344e-05,-1.5087479368958157e-05,-2.421978395616975e-09,1.6111748664116021e-06,1.209508172905771e-05,0.010953903198242188,0.0,-0.0,-0.01041499468373021
566,11518803771,-23.800546646118164,61.24238586425781,0.0015436934772878885,0.9999864410163584,0.0,-0.0,-0.005207473805720072,-3.920175739580145e-09,5.789826218460803e-08,0.00019743919256143272,1.6681198758305982e-05,4.801403974852292e-06,6.391538964756194e-10,-1.656985887166229e-06,-1.7182024976136745e-06,0.009099960327148438,0.0,-0.0,-0.01041499468373021
567,11528803771,-23.800546646118164,61.24238586425781,0.001546401996165514,0.9999864410163584,0.0,-0.0,-0.005207473805720072,1.2520385617165175e-08,1.1682304545956868e-07,0.00027106283232569695,-3.311052205390297e-05,-1.4355538951349445e-05,-1.9664823103227036e-09,1.6440560557384742e-06,5.8924783843394835e-06,0.007362363860011101,0.0,-0.0,-0.01041499468373021
568,11538803770,-23.800546646118164,61.24238586425781,0.0015497207641601562,0.9999864410163584,0.0,-0.0,-0.005207473805720072,-4.552857646444863e-09,3.671464909871247e-08,0.00033053397783078253,6.767200375179527e-06,5.502698513737414e-06,1.386440628969865e-09,-1.7073243725462817e-06,-8.010839337657671e-06,0.005947114434093237,0.0,-0.0,-0.01041499468373021
569,11548803770,-23.800546646118164,61.24238586425781,0.001553497277200222,0.9999864410163584,0.0,-0.0,-0.005207473805720072,-3.771370771232796e-09,4.932145714064973e-08,0.0003770160546991974,8.209352017729543e-06,5.951389539404772e-06,-1.7518961281659529e-10,7.814868752120674e-08,1.2606808468262898e-06,0.004648207686841488,0.0,-0.0,-0.01041499468373021
570,11558803770,-23.800546646118164,61.24238586425781,0.0015576170990243554,0.9999864410163584,0.0,-0.0,-0.005207473805720072,-3.5304807965985674e-09,1.0505782910286143e-07,0.00041199682164005935,2.240320827695541e-05,6.321922228380572e-06,-7.48168971220764e-10,2.4088997463422857e-08,5.573637281486299e-06,0.003498076694086194,0.0,-0.0,-0.01041499468373021
571,11568803770,-23.800546646118164,61.24238586425781,0.0015620040940120816,0.9999864410163584,0.0,-0.0,-0.005207473805720072,-5.117641865837186e-09,-4.173642764726537e-08,0.00043954848661087453,2.4299110009451397e-05,6.413941719074501e-06,2.2873609673013107e-09,-1.58716105147505e-07,-1.4679426385555416e-05,0.002755166497081518,0.0,-0.0,-0.01041499468373021
572,11578803770,-23.800546646118164,61.24238586425781,0.0015665816608816385,0.9999864410163584,0.0,-0.0,-0.005207473805720072,-3.4556104644423158e-09,1.4838931861049787e-07,0.0004572582256514579,2.459519964759238e-05,6.843994924565777e-06,-8.195493728102576e-10,1.6620313658677333e-07,1.901257382996846e-05,0.0017709739040583372,0.0,-0.0,-0.01041499468373021
573,11588803769,-23.800546646118164,61.24238586425781,0.0015712737804278731,0.9999864410163584,0.0,-0.0,-0.005207473805720072,1.0128239580353693e-08,2.3312876074044198e-09,0.00046894073602743447,-2.4361575924558565e-05,-1.2672909178945702e-05,8.6297030632565e-10,1.3583850204668124e-06,-1.4605802789446898e-05,0.0011682510375976562,0.0,-0.0,-0.01041499468373021
574,11598803769,-23.800546646118164,61.24238586425781,0.0015760039677843451,0.9999864410163584,0.0,-0.0,-0.005207473805720072,-6.555224807414106e-09,-5.7539068620826583e-08,0.00047426222590729594,2.7886577299796045e-05,6.760862561350223e-06,2.694783729495498e-09,-1.6683464991729124e-06,-5.9870358199987095e-06,0.0005321489879861474,0.0,-0.0,-0.01041499468373021
575,11608803769,-23.800546646118164,61.24238586425781,0.0015807723393663764,0.9999864410163584,0.0,-0.0,-0.005207473805720072,-5.143531378593025e-09,-8.360001579887921e-09,0.00047635077498853207,2.8482570996857248e-05,6.865740942885168e-06,1.5402805697561917e-09,1.4116933755303762e-07,4.917906608170597e-06,0.0002088549081236124,0.0,-0.0,-0.01041499468373021
576,11618803769,-23.800546646118164,61.24238586425781,0.0015855026431381702,0.9999864410163584,0.0,-0.0,-0.005207473805720072,-5.069985320460546e-09,3.601530185193269e-09,0.0004741573357023299,2.9508009902201593e-05,6.965433385630604e-06,1.7874127733463752e-09,7.354605813247872e-09,1.19615322091704e-06,-0.00021934392862021923,0.0,-0.0,-0.01041499468373021
577,11628803768,-23.800546646118164,61.24238586425781,0.001590194646269083,0.9999864410163584,0.0,-0.0,-0.005207473805720072,-5.813446612989992e-09,-8.19456786871342e-08,0.0004676818789448589,3.045364428544417e-05,6.768543698854046e-06,1.4966640149438604e-09,-7.434613280565827e-08,-8.55472080729669e-06,-0.0006475456757470965,0.0,-0.0,-0.01041499468373021
578,11638803768,-23.800546646118164,61.24238586425781,0.0015947723295539618,0.9999864410163584,0.0,-0.0,-0.005207473805720072,2.548268085433847e-08,5.0414854513292084e-09,0.0004590702010318637,-7.169324817368761e-05,-3.252634996897541e-05,-1.7583170475177212e-09,3.129612878183252e-06,8.698716555954888e-06,-0.0008611677912995219,0.0,-0.0,-0.01041499468373021
579,11648803768,-23.800546646118164,61.24238586425781,0.0015992354601621628,0.9999864410163584,0.0,-0.0,-0.005207473805720072,-5.873009634171922e-09,9.141361090314604e-08,0.0004480075731407851,3.080156602663919e-05,6.5201193137909286e-06,7.624806896977532e-10,-3.1355689316114876e-06,8.637212886242196e-06,-0.0011062627891078591,0.0,-0.0,-0.01041499468373021
580,11658803768,-23.800546646118164,61.24238586425781,0.0016035842709243298,0.9999864410163584,0.0,-0.0,-0.005207473805720072,-3.038566509516727e-09,2.07651638106654e-07,0.00043502807966433465,3.1646435672882944e-05,6.975645646889461e-06,-7.140646962611186e-10,2.834443080246274e-07,1.162380249297712e-05,-0.0012979493476450443,0.0,-0.0,-0.01041499468373021
581,11668803768,-23.800546646118164,61.24238586425781,0.001607818529009819,0.9999864410163584,0.0,-0.0,-0.005207473805720072,1.0794912519429545e-08,4.307797141223091e-08,0.0004220962291583419,-1.8186297893407755e-05,-1.3046818821749184e-05,9.602857398149922e-10,1.383347921546374e-06,-1.6457366655231453e-05,-0.001293185050599277,0.0,-0.0,-0.01041499468373021
582,11678803767,-23.800546646118164,61.24238586425781,0.0016118620987981558,0.9999864410163584,0.0,-0.0,-0.005207473805720072,-5.404686920229551e-09,4.199189973519424e-08,0.0004062175576109439,3.205897519364953e-05,6.538324214488966e-06,2.310248436998563e-09,-1.61996001679654e-06,-1.0860716770366707e-07,-0.0015878671547397971,0.0,-0.0,-0.01041499468373021
583,11688803767,-23.800546646118164,61.24238586425781,0.0016157912323251367,0.9999864410163584,0.0,-0.0,-0.005207473805720072,-5.787965218218005e-09,-5.613787124048031e-08,0.00039136887062340975,-5.4520121921086684e-05,7.971336344780866e-06,-8.917142579889514e-09,-3.8327829798845414e-08,-9.812977623369079e-06,-0.0014848686987534165,0.0,-0.0,-0.01041499468373021
584,11698803767,-23.800546646118164,61.24238586425781,0.001619529677554965,0.9999864410163584,0.0,-0.0,-0.005207473805720072,1.011936223704879e-08,1.7056098755574567e-08,0.0003755378711502999,-1.739394610922318e-05,-1.254102880920982e-05,3.682427029971791e-09,1.5907327224340406e-06,7.319397354876855e-06,-0.0015830999473109841,0.0,-0.0,-0.01041499468373021
585,11708803767,-23.800546646118164,61.24238586425781,0.0016231155022978783,0.9999864410163584,0.0,-0.0,-0.005207473805720072,9.036011050511661e-09,1.887107137221733e-09,0.00036043167347088456,-1.6969022908597253e-05,-1.2627316209545825e-05,-8.913710880520398e-10,-1.0833511510099925e-07,-1.5168991467362503e-06,-0.0015106197679415345,0.0,-0.0,-0.01041499468373021
586,11718803766,-23.800546646118164,61.24238586425781,0.0016265487065538764,0.9999864410163584,0.0,-0.0,-0.005207473805720072,-2.1158538032750585e-08,-4.080671078821041e-10,0.0003429412900004536,-1.6833260815474205e-05,2.7362782930140384e-05,4.005574094634312e-09,-3.019454879904515e-06,-2.2951742550958443e-07,-0.001749038347043097,0.0,-0.0,-0.01041499468373021
587,11728803766,-23.800546646118164,61.24238586425781,0.0016298294067382812,0.9999864410163584,0.0,-0.0,-0.005207473805720072,-3.918992241835895e-09,3.681949323208755e-08,0.0003269672452006489,3.4293727367185056e-05,7.144006303860806e-06,1.4413191751216914e-09,1.723954710541875e-06,3.7227562188490992e-06,-0.0015974044799804688,0.0,-0.0,-0.01041499468373021
588,11738803766,-23.800546646118164,61.24238586425781,0.0016329193022102118,0.9999864410163584,0.0,-0.0,-0.005207473805720072,-5.2867310529336464e-09,7.439323379543339e-09,0.0003099155437666923,3.5369892430026084e-05,7.322135388676543e-06,-2.413910404897024e-09,-1.367738775570615e-07,-2.9380169053183636e-06,-0.0017051701433956623,0.0,-0.0,-0.01041499468373021
589,11748803766,-23.800546646118164,61.24238586425781,0.0016358565771952271,0.9999864410163584,0.0,-0.0,-0.005207473805720072,2.4309445123549267e-08,-7.149306924247867e-08,0.0002951144997496158,-6.574077269760892e-05,-3.198279955540784e-05,-1.188073195379502e-08,2.959617631859146e-06,-7.893239853729028e-06,-0.0014801044017076492,0.0,-0.0,-0.01041499468373021
590,11758803766,-23.800546646118164,61.24238586425781,0.0016386413481086493,0.9999864410163584,0.0,-0.0,-0.005207473805720072,-6.582829392698386e-09,6.095342541811988e-08,0.00027937887352891266,3.516805008985102e-05,6.943396783753997e-06,1.5622839910633957e-08,-3.0892274480720516e-06,1.3244650290289428e-05,-0.0015735626220703125,0.0,-0.0,-0.01041499468373021
591,11768803765,-23.800546646118164,61.24238586425781,0.0016386413481086493,0.9999864410163584,0.0,-0.0,-0.005207473805720072,0.0,-0.0,0.0,0.0,-0.0,-0.0,6.582829428225523e-07,-6.095342541811988e-06,-0.027937887236475945,0.0,-0.0,-0.01041499468373021
592,11778803765,-23.800546646118164,61.24238586425781,0.0016386413481086493,0.9999864410163584,0.0,-0.0,-0.005207473805720072,-1.4582718144140472e-08,3.692668570920432e-08,6.466865306720138e-05,5.0401940825395286e-05,1.9316343241371214e-05,5.547890591373061e-09,-1.4582718677047524e-06,3.6926685424987227e-06,0.006466865539550781,0.0,-0.0,-0.01041499468373021
593,11788803765,-23.800546646118164,61.24238586425781,0.0016401290195062757,0.9999864410163584,0.0,-0.0,-0.005207473805720072,1.4372960599473572e-09,-3.017682104200503e-08,8.58211496961303e-05,-9.101615319195844e-07,-9.35870502871694e-07,-8.016271202393455e-09,1.6020013617890072e-06,-6.710350589855807e-06,0.0021152496337890625,0.0,-0.0,-0.01041499468373021
594,11798803765,-23.800546646118164,61.24238586425781,0.0016411590622738004,0.9999864410163584,0.0,-0.0,-0.005207473805720072,1.261144522146651e-09,-5.1470507855810865e-09,0.00010220527474302799,-2.114513563356013e-06,-1.7639241605138523e-06,1.5526735452908724e-09,-1.7615153780070614e-08,2.502976940377266e-06,0.0016384124755859375,0.0,-0.0,-0.01041499468373021
595,11808803764,-23.800546646118164,61.24238586425781,0.0016423034248873591,0.9999864410163584,0.0,-0.0,-0.005207473805720072,-1.3297387191357757e-08,3.626404421197549e-08,0.0001151370961451903,4.850241384701803e-05,1.7496669897809625e-05,6.1243072835281964e-09,-1.455853180232225e-06,4.141109457123093e-06,0.0012931821402162313,0.0,-0.0,-0.01041499468373021
596,11818803764,-23.800546646118164,61.24238586425781,0.0016435622237622738,0.9999864410163584,0.0,-0.0,-0.005207473805720072,-1.2240024993559473e-08,7.088324149862046e-09,0.00012513159890659153,4.8305457312380895e-05,1.706771581666544e-05,-2.2612201000526966e-09,1.0573621977982839e-07,-2.917571919169859e-06,0.0009994502179324627,0.0,-0.0,-0.01041499468373021
597,11828803764,-23.800546646118164,61.24238586425781,0.001644897391088307,0.9999864410163584,0.0,-0.0,-0.005207473805720072,3.1215254825411876e-09,-3.4946747717867765e-08,0.0001321125018876046,-3.6815333714912413e-06,-3.3421977150283055e-06,-6.370081351292356e-09,1.5361549685621867e-06,-4.203507160127629e-06,0.000698090298101306,0.0,-0.0,-0.01041499468373021
598,11838803764,-23.800546646118164,61.24238586425781,0.0016462707426398993,0.9999864410163584,0.0,-0.0,-0.005207473805720072,1.7898662107995733e-08,-4.4093894757679664e-08,0.00013789176591672003,-5.6954773754114285e-05,-2.3958755264175124e-05,-3.621256183805599e-09,1.4777136811972014e-06,-9.147146897703351e-07,0.0005779264029115438,0.0,-0.0,-0.01041499468373021
599,11848803764,-23.800546646118164,61.24238586425781,0.001647682162001729,0.9999864410163584,0.0,-0.0,-0.005207473805720072,-1.217594203239969e-08,6.389838347331533e-08,0.00013927459076512605,4.216859815642238e-05,1.4875232409394812e-05,1.405803384812998e-08,-3.0074602364038583e-06,1.0799228221003432e-05,0.00013828248484060168,0.0,-0.0,-0.01041499468373021
600,11858803763,-23.800546646118164,61.24238586425781,0.0016490935813635588,0.9999864410163584,0.0,-0.0,-0.005207473805720072,4.228322580956956e-09,-2.5858225782826594e-08,0.00014104842557571828,-7.884298611315899e-06,-4.846230694965925e-06,-9.325042071850476e-09,1.640426489757374e-06,-8.975661330623552e-06,0.0001773834810592234,0.0,-0.0,-0.01041499468373021
601,11868803763,-23.800546646118164,61.24238586425781,0.0016505050007253885,0.9999864410163584,0.0,-0.0,-0.005207473805720072,3.18167292512328e-09,-6.915363570669797e-08,0.0001412296260241419,-9.686925477581099e-05,-4.448445906746201e-06,-4.868411007663553e-09,-1.0466496291883232e-07,-4.329540843173163e-06,1.8120044842362404e-05,0.0,-0.0,-0.01041499468373021
602,11878803763,-23.800546646118164,61.24238586425781,0.0016519164200872183,0.9999864410163584,0.0,-0.0,-0.005207473805720072,4.630224204049682e-09,4.948573817387114e-08,0.00014015196938998997,-1.0446881788084283e-05,-5.7973797993327025e-06,1.0426352226033941e-08,1.4485512167539127e-07,1.186393819807563e-05,-0.00010776566341519356,0.0,-0.0,-0.01041499468373021
603,11888803763,-23.800546646118164,61.24238586425781,0.0016532897716388106,0.9999864410163584,0.0,-0.0,-0.005207473805720072,-1.027245843943092e-08,4.365594463706657e-08,0.00013748169294558465,4.034104131278582e-05,1.3407227015704848e-05,2.6495394767067637e-09,-1.4902682323736371e-06,-5.829793394696026e-07,-0.00026702764444053173,0.0,-0.0,-0.01041499468373021
604,11898803762,-23.800546646118164,61.24238586425781,0.0016546630067750812,0.9999864410163584,0.0,-0.0,-0.005207473805720072,5.462275964873697e-09,-2.9356492348142638e-08,0.00013565062545239925,-1.0505293175810948e-05,-6.579060936928727e-06,-8.826690489627254e-09,1.5734734688521712e-06,-7.301243840629468e-06,-0.0001831067493185401,0.0,-0.0,-0.01041499468373021
605,11908803762,-23.800546646118164,61.24238586425781,0.0016559981741011143,0.9999864410163584,0.0,-0.0,-0.005207473805720072,5.3045314807320665e-09,-5.6000155623792125e-09,0.00013304709864314646,-1.1884038030984811e-05,-7.432684469677042e-06,1.3474037441341125e-09,-1.577444841416309e-08,2.375647682129056e-06,-0.00026035268092527986,0.0,-0.0,-0.01041499468373021
606,11918803762,-23.800546646118164,61.24238586425781,0.0016572570893913507,0.9999864410163584,0.0,-0.0,-0.005207473805720072,5.566404226442501e-09,-1.7034312849162347e-09,0.00012776374933309853,-1.2392352800816298e-05,-7.806373105267994e-06,4.662726871274003e-10,2.6187274571043417e-08,3.8965845305938274e-07,-0.0005283349310047925,0.0,-0.0,-0.01041499468373021
607,11928803762,-23.800546646118164,61.24238586425781,0.0016585158882662654,0.9999864410163584,0.0,-0.0,-0.005207473805720072,5.9607900837477246e-09,-1.0695402341553972e-09,0.000124273297842592,-1.2746932952723e-05,-8.343203262484167e-06,5.0904825493747197e-11,3.943858573052239e-08,6.338910196745928e-08,-0.000349045149050653,0.0,-0.0,-0.01041499468373021
608,11938803762,-23.800546646118164,61.24238586425781,0.0016596984351053834,0.9999864410163584,0.0,-0.0,-0.005207473805720072,-8.584657429366871e-09,3.6277857162758664e-08,0.00012007712939521298,3.777815800276585e-05,1.089114448404871e-05,5.587182716482175e-09,-1.454544758416887e-06,3.7347397210396593e-06,-0.0004196168447379023,0.0,-0.0,-0.01041499468373021
609,11948803761,-23.800546646118164,61.24238586425781,0.001660842914134264,0.9999864410163584,0.0,-0.0,-0.005207473805720072,-7.794537459915318e-09,7.172647809028376e-09,0.00011438369256211445,3.8369013054762036e-05,1.0806582395161968e-05,-2.2714294889425446e-09,7.901199694515526e-08,-2.910520834120689e-06,-0.0005693436833098531,0.0,-0.0,-0.01041499468373021
610,11958803761,-23.800546646118164,61.24238586425781,0.0016619490925222635,0.9999864410163584,0.0,-0.0,-0.005207473805720072,6.982084244100406e-09,-3.375146562234477e-08,0.00011014938354492188,-1.1375529538781848e-05,-8.811986845103092e-06,-6.183257905689743e-09,1.4776621810597135e-06,-4.092411472811364e-06,-0.00042343090171925724,0.0,-0.0,-0.01041499468373021
611,11968803761,-23.800546646118164,61.24238586425781,0.0016630172031000257,0.9999864410163584,0.0,-0.0,-0.005207473805720072,6.566521992823482e-09,-5.756976229065458e-09,0.00010535240289755166,-1.2061320376233198e-05,-9.266398592444602e-06,2.0526917943186618e-09,-4.1556226904049254e-08,2.79944879366667e-06,-0.0004796980647370219,0.0,-0.0,-0.01041499468373021
612,11978803761,-23.800546646118164,61.24238586425781,0.0016630172031000257,0.9999864410163584,0.0,-0.0,-0.005207473805720072,-7.928649736754778e-09,3.584893093488972e-08,0.00010002135968534276,3.8741080061299726e-05,9.938758921634872e-06,6.1848677290754495e-09,-1.4495171853923239e-06,4.1605908336350694e-06,-0.0005331042921170592,0.0,-0.0,-0.01041499468373021
613,11988803760,-23.800546646118164,61.24238586425781,0.0016649627359583974,0.9999864410163584,0.0,-0.0,-0.005207473805720072,7.569822990660668e-09,-2.986677927196979e-08,9.588241664459929e-05,-1.1189656106580514e-05,-9.623076039133593e-06,-7.746392860497053e-09,1.5498471839237027e-06,-6.571571248059627e-06,-0.000413894304074347,0.0,-0.0,-0.01041499468373021
614,11998803760,-23.800546646118164,61.24238586425781,0.0016649627359583974,0.9999864410163584,0.0,-0.0,-0.005207473805720072,6.243965344765456e-09,-6.955170306355285e-08,9.057045099325478e-05,-9.9723540188279e-05,-8.824147698760498e-06,-4.328108982321055e-09,-1.3258576814223488e-07,-3.968492364947451e-06,-0.0005311965942382812,0.0,-0.0,-0.01041499468373021
615,12008803760,-23.800546646118164,61.24238586425781,0.001666755648329854,0.9999864410163584,0.0,-0.0,-0.005207473805720072,-7.585443384527935e-09,8.789211847215483e-08,8.63265959196724e-05,3.9393115002894774e-05,1.009612788038794e-05,1.630583135181496e-08,-1.3829409226673306e-06,1.5744382835691795e-05,-0.0004243855073582381,0.0,-0.0,-0.01041499468373021
616,12018803760,-23.800546646118164,61.24238586425781,0.001666755648329854,0.9999864410163584,0.0,-0.0,-0.005207473805720072,7.790367462234826e-09,-2.2798202437002146e-08,8.119583071675152e-05,-1.0866740922210738e-05,-9.787448107090313e-06,-1.0911959336112886e-08,1.5375810562545666e-06,-1.1069032552768476e-05,-0.0005130765493959188,0.0,-0.0,-0.01041499468373021
617,12028803760,-23.800546646118164,61.24238586425781,0.0016683196881785989,0.9999864410163584,0.0,-0.0,-0.005207473805720072,6.787661099849629e-09,-3.1864577643148095e-09,7.719993300270289e-05,-1.0157604265259579e-05,-9.605733794160187e-06,8.656149685926096e-10,-1.0027063979123341e-07,1.961174575626501e-06,-0.0003995897714048624,0.0,-0.0,-0.01041499468373021
618,12038803759,-23.800546646118164,61.24238586425781,0.0016683196881785989,0.9999864410163584,0.0,-0.0,-0.005207473805720072,-8.55794279885913e-09,-2.83286087920942e-08,7.370948878815398e-05,-4.757812712341547e-05,1.0801876669574995e-05,-7.916887284631358e-11,-1.5345603969763033e-06,-2.5142151116597233e-06,-0.00034904442145489156,0.0,-0.0,-0.01041499468373021
619,12048803759,-23.800546646118164,61.24238586425781,0.0016697311075404286,0.9999864410163584,0.0,-0.0,-0.005207473805720072,-6.453725998056825e-09,5.809271286238982e-08,6.91604582243599e-05,3.9820271922508255e-05,9.581171980244108e-06,7.800760037923737e-09,2.1042167475116003e-07,8.642132343084086e-06,-0.00045490305637940764,0.0,-0.0,-0.01041499468373021
620,12058803759,-23.800546646118164,61.24238586425781,0.0016697311075404286,0.9999864410163584,0.0,-0.0,-0.005207473805720072,7.624194608979451e-09,-2.5851381479924385e-08,6.575584120582789e-05,-8.938917744671926e-06,-9.641288670536596e-06,-9.088431340842362e-09,1.4077920695854118e-06,-8.394409633183386e-06,-0.0003404617018532008,0.0,-0.0,-0.01041499468373021
621,12068803759,-23.800546646118164,61.24238586425781,0.0016709899064153433,0.9999864410163584,0.0,-0.0,-0.005207473805720072,6.926536233464731e-09,-3.985546559448494e-09,6.220817158464342e-05,-8.850092854117975e-06,-9.805265108298045e-06,1.2202674426475824e-09,-6.976583932782887e-08,2.186583515140228e-06,-0.0003547669621184468,0.0,-0.0,-0.01041499468373021
622,12078803758,-23.800546646118164,61.24238586425781,0.0016709899064153433,0.9999864410163584,0.0,-0.0,-0.005207473805720072,7.092804565900224e-09,-8.659517547471296e-10,5.810737638967112e-05,-8.680519385961816e-06,-1.002251428872114e-05,3.94012017457257e-10,1.66268332435493e-08,3.1195946803563857e-07,-0.00041007951949723065,0.0,-0.0,-0.01041499468373021
623,12088803758,-23.800546646118164,61.24238586425781,0.0016720962012186646,0.9999864410163584,0.0,-0.0,-0.005207473805720072,-7.735987850310266e-09,3.704226614331674e-08,5.389213401940651e-05,4.26267106377054e-05,9.610279448679648e-06,5.715639073144985e-09,-1.4828792700427584e-06,3.7908218928350834e-06,-0.00042152422247454524,0.0,-0.0,-0.01041499468373021
624,12098803758,-23.800546646118164,61.24238586425781,0.0016720962012186646,0.9999864410163584,0.0,-0.0,-0.005207473805720072,-7.149306480158657e-09,7.920525568749781e-09,5.1708218961721286e-05,4.382311090012081e-05,9.817658792599104e-06,-2.2305832736435605e-09,5.86681352388041e-08,-2.9121740681148367e-06,-0.00021839150576852262,0.0,-0.0,-0.01041499468373021
625,12108803758,-23.800546646118164,61.24238586425781,0.0016720962012186646,0.9999864410163584,0.0,-0.0,-0.005207473805720072,7.46763717529575e-09,-3.454816877024314e-08,4.718780473922379e-05,-7.4589620453480165e-06,-9.572523595124949e-06,-6.301186683543847e-09,1.4616944099543616e-06,-4.246869593771407e-06,-0.0004520414222497493,0.0,-0.0,-0.01041499468373021
626,12118803758,-23.800546646118164,61.24238586425781,0.0016735458048060536,0.9999864410163584,0.0,-0.0,-0.005207473805720072,6.482196557300313e-09,-5.597287078273894e-09,4.4126511056674644e-05,-7.996022759471089e-06,-9.245556611858774e-06,2.211814953412272e-09,-9.854406357590051e-08,2.8950883006473305e-06,-0.0003061293682549149,0.0,-0.0,-0.01041499468373021
627,12128803757,-23.800546646118164,61.24238586425781,0.0016735458048060536,0.9999864410163584,0.0,-0.0,-0.005207473805720072,6.3302905140005805e-09,-3.0927424510274193e-10,4.213333158986643e-05,-6.812778792664176e-06,-8.985250133264344e-06,7.444803662437494e-10,-1.5190604329973212e-08,5.28801251675759e-07,-0.00019931794668082148,0.0,-0.0,-0.01041499468373021
628,12138803757,-23.800546646118164,61.24238586425781,0.0016735458048060536,0.9999864410163584,0.0,-0.0,-0.005207473805720072,-8.633445958139419e-09,3.787534197385867e-08,3.870964064844884e-05,4.5409022277453914e-05,1.0856027984118555e-05,5.796883861819424e-09,-1.4963736703066388e-06,3.818461664195638e-06,-0.00034236907958984375,0.0,-0.0,-0.01041499468373021
629,12148803757,-23.800546646118164,61.24238586425781,0.0016747283516451716,0.9999864410163584,0.0,-0.0,-0.005207473805720072,-8.891197111893234e-09,-5.812292158680066e-08,3.672599632409401e-05,-4.389634705148637e-05,1.2257381968083791e-05,-8.377467608511324e-09,-2.5775115375381574e-08,-9.59982571657747e-06,-0.00019836443243548274,0.0,-0.0,-0.01041499468373021
630,12158803757,-23.800546646118164,61.24238586425781,0.0016747283516451716,0.9999864410163584,0.0,-0.0,-0.005207473805720072,6.7571508388653e-09,1.7820878994712075e-08,3.396034298930317e-05,-6.003424459777307e-06,-7.88339093560353e-06,4.0328842487724614e-09,1.5648348608010565e-06,7.594380349473795e-06,-0.00027656531892716885,0.0,-0.0,-0.01041499468373021
631,12168803756,-23.800546646118164,61.24238586425781,0.0016747283516451716,0.9999864410163584,0.0,-0.0,-0.005207473805720072,-9.389661492775758e-09,4.058279401419895e-08,3.101348920608871e-05,4.6393619413720444e-05,1.2008556041109841e-05,4.85535833760764e-09,-1.6146811958606122e-06,2.2761914806324057e-06,-0.00029468536376953125,0.0,-0.0,-0.01041499468373021
632,12178803756,-23.800546646118164,61.24238586425781,0.0016747283516451716,0.9999864410163584,0.0,-0.0,-0.005207473805720072,-9.322316252280416e-09,-5.614370124362722e-08,2.955436684715096e-05,-4.079238715348765e-05,1.29068830574397e-05,-8.588367350625958e-09,6.7345240495342296e-09,-9.67264986684313e-06,-0.00014591222861781716,0.0,-0.0,-0.01041499468373021
633,12188803756,-23.800546646118164,61.24238586425781,0.0016747283516451716,0.9999864410163584,0.0,-0.0,-0.005207473805720072,0.0,-0.0,0.0,0.0,-0.0,-0.0,9.322316145699006e-07,5.614369911199901e-06,-0.0029554367065429688,0.0,-0.0,-0.01041499468373021
634,12198803756,-23.800546646118164,61.24238586425781,0.0016757582779973745,0.9999864410163584,0.0,-0.0,-0.005207473805720072,4.4506764940166477e-10,-2.9860691697081165e-10,6.322860372165451e-06,-4.072351202921709e-07,-5.903547162233735e-07,-9.158500346995169e-11,4.4506766272434106e-08,-2.9860693473438005e-08,0.0006322860135696828,0.0,-0.0,-0.01041499468373021
635,12208803756,-23.800546646118164,61.24238586425781,0.0016757582779973745,0.9999864410163584,0.0,-0.0,-0.005207473805720072,4.401179143354028e-10,2.962084189039871e-10,8.21113553683972e-06,8.245767446624086e-08,-6.213633128027141e-07,4.714152679330397e-11,-4.949735066261951e-10,5.948152903556547e-08,0.0001888275146484375,0.0,-0.0,-0.01041499468373021
636,12218803755,-23.800546646118164,61.24238586425781,0.0016757582779973745,0.9999864410163584,0.0,-0.0,-0.005207473805720072,7.58742513262689e-10,-2.6018717735887265e-10,1.0051727258542087e-05,-3.288547247848328e-07,-1.0497841458345647e-06,-9.288154967368456e-11,3.186245933761711e-08,-5.563956051446439e-08,0.0001840591721702367,0.0,-0.0,-0.01041499468373021
637,12228803755,-23.800546646118164,61.24238586425781,0.0016757582779973745,0.9999864410163584,0.0,-0.0,-0.005207473805720072,1.5644907591649826e-08,-3.719731722640063e-08,1.1358260962879285e-05,-5.102291106595658e-05,-2.07955436053453e-05,-5.601709318625581e-09,1.4886164763083798e-06,-3.693713097163709e-06,0.00013065336679574102,0.0,-0.0,-0.01041499468373021
638,12238803755,-23.800546646118164,61.24238586425781,0.0016757582779973745,0.9999864410163584,0.0,-0.0,-0.005207473805720072,4.5293629957754433e-10,2.9417570601708576e-08,1.1940001968469005e-05,-6.513812991215673e-07,-1.6690800066498923e-06,7.846804983557831e-09,-1.519197212473955e-06,6.661488896497758e-06,5.8174100558971986e-05,0.0,-0.0,-0.01041499468373021
639,12248803755,-23.800546646118164,61.24238586425781,0.0016757582779973745,0.9999864410163584,0.0,-0.0,-0.005207473805720072,-1.357961298964483e-08,4.185313429161397e-08,1.241683912667213e-05,5.0910271966131404e-05,1.7908912923303433e-05,3.97516242145457e-09,-1.4032549415787798e-06,1.2435564258339582e-06,4.76837158203125e-05,0.0,-0.0,-0.01041499468373021
640,12258803754,-23.800546646118164,61.24238586425781,0.0016757582779973745,0.9999864410163584,0.0,-0.0,-0.005207473805720072,2.1485730972159445e-09,-2.8925473571916882e-08,1.1930465007026214e-05,3.514084880862356e-07,-1.971652409338276e-06,-8.480689039913614e-09,1.5728186326668947e-06,-7.077861027937615e-06,-4.863741196459159e-05,0.0,-0.0,-0.01041499468373021
641,12268803754,-23.800546646118164,61.24238586425781,0.0016757582779973745,0.9999864410163584,0.0,-0.0,-0.005207473805720072,-1.3384103603186759e-08,3.346170984741548e-08,1.2178420547570568e-05,5.154095561010763e-05,1.7552867575432174e-05,7.203798446653309e-09,-1.5532677934970707e-06,6.238718924578279e-06,2.4795554054435343e-05,0.0,-0.0,-0.01041499468373021
642,12278803754,-23.800546646118164,61.24238586425781,0.0016757582779973745,0.9999864410163584,0.0,-0.0,-0.005207473805720072,2.379597408008749e-09,-3.0024537522876926e-08,1.2941360182594508e-05,1.0507460501685273e-06,-2.3281968424271327e-06,-7.47045003635094e-09,1.5763700957904803e-06,-6.348624538077274e-06,7.629395986441523e-05,0.0,-0.0,-0.01041499468373021
643,12288803754,-23.800546646118164,61.24238586425781,0.0016767883207648993,0.9999864410163584,0.0,-0.0,-0.005207473805720072,1.6498427513056413e-08,-4.234704675809553e-08,1.3608932022179943e-05,-5.1060527766821906e-05,-2.2063688447815366e-05,-3.938100068268113e-09,1.4118830904408242e-06,-1.2322509519435698e-06,6.675718759652227e-05,0.0,-0.0,-0.01041499468373021
644,12298803754,-23.800546646118164,61.24238586425781,0.0016767883207648993,0.9999864410163584,0.0,-0.0,-0.005207473805720072,1.0245310155809761e-09,2.820429934047297e-08,1.3513565136236139e-05,-1.3499454780685483e-06,-2.5270419428125024e-06,8.42679437340621e-09,-1.5473896155526745e-06,7.055134574329713e-06,-9.536688594380394e-06,0.0,-0.0,-0.01041499468373021
645,12308803753,-23.800546646118164,61.24238586425781,0.0016767883207648993,0.9999864410163584,0.0,-0.0,-0.005207473805720072,1.6824066584320008e-09,4.00096045183318e-09,1.2874603271484375e-05,-1.1746757309083478e-06,-2.3652792151551694e-06,-1.501675006565506e-09,6.578756739372693e-08,-2.4203338853112655e-06,-6.389618647517636e-05,0.0,-0.0,-0.01041499468373021
646,12318803753,-23.800546646118164,61.24238586425781,0.0016767883207648993,0.9999864410163584,0.0,-0.0,-0.005207473805720072,1.756460754620548e-09,7.426282921940697e-10,1.2121200597903226e-05,-8.380420126741228e-07,-2.4759665393503383e-06,-4.701671829643317e-10,7.405409618854719e-09,-3.25833241276996e-07,-7.534027099609375e-05,0.0,-0.0,-0.01041499468373021
647,12328803753,-23.800546646118164,61.24238586425781,0.0016767883207648993,0.9999864410163584,0.0,-0.0,-0.005207473805720072,-1.32437110167416e-08,3.728441200223642e-08,1.1672973414533772e-05,4.997825817554258e-05,1.737668389978353e-05,5.523353330261216e-09,-1.5000172197687789e-06,3.654178499346017e-06,-4.48227183369454e-05,0.0,-0.0,-0.01041499468373021
648,12338803753,-23.800546646118164,61.24238586425781,0.0016767883207648993,0.9999864410163584,0.0,-0.0,-0.005207473805720072,2.4795598907445537e-09,-2.9540213830614448e-08,1.1739730325643905e-05,-4.889446927336394e-07,-2.4505993678758387e-06,-7.950221814212455e-09,1.5723271644674242e-06,-6.682462753815344e-06,6.675691111013293e-06,0.0,-0.0,-0.01041499468373021
649,12348803752,-23.800546646118164,61.24238586425781,0.0016767883207648993,0.9999864410163584,0.0,-0.0,-0.005207473805720072,1.1354974738253532e-09,-6.990956080699107e-08,1.1396407899155747e-05,-9.025057079270482e-05,-1.6417154711234616e-06,-4.410693588141612e-09,-1.3440623547467112e-07,-4.0369345697399694e-06,-3.4332242648815736e-05,0.0,-0.0,-0.01041499468373021
650,12358803752,-23.800546646118164,61.24238586425781,0.0016767883207648993,0.9999864410163584,0.0,-0.0,-0.005207473805720072,-1.2488982292779838e-08,8.761689684888552e-08,1.1377333976270165e-05,4.79508307762444e-05,1.7016158381011337e-05,1.6275155445555356e-08,-1.3624479606733075e-06,1.5752646504552104e-05,-1.907392288558185e-06,0.0,-0.0,-0.01041499468373021
651,12368803752,-23.800546646118164,61.24238586425781,0.0016767883207648993,0.9999864410163584,0.0,-0.0,-0.005207473805720072,-1.2084989009508718e-08,1.5103982065056698e-08,1.009941115626134e-05,4.892753349849954e-05,1.6954840248217806e-05,-5.194531027541416e-09,4.0399328327112016e-08,-7.251291663123993e-06,-0.00012779228563886136,0.0,-0.0,-0.01041499468373021
652,12378803752,-23.800546646118164,61.24238586425781,0.0016778564313426614,0.9999864410163584,0.0,-0.0,-0.005207473805720072,1.767644697281412e-08,-7.015695757672802e-08,1.0805129932123236e-05,-5.2680494263768196e-05,-2.2615959096583538e-05,-1.2783419656159367e-08,2.976143605337711e-06,-8.526093552063685e-06,7.057187758618966e-05,0.0,-0.0,-0.01041499468373021
653,12388803752,-23.800546646118164,61.24238586425781,0.0016778564313426614,0.9999864410163584,0.0,-0.0,-0.005207473805720072,1.6886678722016768e-09,2.4527256670126008e-08,9.765624781721272e-06,-2.581838316473295e-06,-3.461565711404546e-06,9.858498017933925e-09,-1.5987779988790862e-06,9.468421012570616e-06,-0.00010395051504019648,0.0,-0.0,-0.01041499468373021
654,12398803751,-23.800546646118164,61.24238586425781,0.0016778564313426614,0.9999864410163584,0.0,-0.0,-0.005207473805720072,2.8465971801949763e-09,3.1603826222692533e-09,9.679793947725557e-06,-2.7726530333893606e-06,-3.971455953433178e-06,-1.1604022187583496e-09,1.1579292902297311e-07,-2.136687498932588e-06,-8.583083399571478e-06,0.0,-0.0,-0.01041499468373021
655,12408803751,-23.800546646118164,61.24238586425781,0.0016778564313426614,0.9999864410163584,0.0,-0.0,-0.005207473805720072,2.9126541178925436e-09,4.5535925030648627e-10,9.489059266343247e-06,-2.562451982157654e-06,-4.108146640646737e-06,-3.8212324970920974e-10,6.605693769756726e-09,-2.7050234052694577e-07,-1.9073468138230965e-05,0.0,-0.0,-0.01041499468373021
656,12418803751,-23.800546646118164,61.24238586425781,0.0016778564313426614,0.9999864410163584,0.0,-0.0,-0.005207473805720072,-1.153979667378735e-08,3.7045293055371076e-08,8.19206252344884e-06,4.809560050489381e-05,1.5017199984868057e-05,5.458578922201696e-09,-1.445245061404421e-06,3.658993364297203e-06,-0.00012969967792741954,0.0,-0.0,-0.01041499468373021
657,12428803751,-23.800546646118164,61.24238586425781,0.0016778564313426614,0.9999864410163584,0.0,-0.0,-0.005207473805720072,3.1896409957710148e-09,-9.402962319882135e-08,8.153915587172378e-06,-9.024838800542057e-05,-3.475592393442639e-06,-1.3843842516791938e-08,1.4729437225469155e-06,-1.3107491213304456e-05,-3.814693627646193e-06,0.0,-0.0,-0.01041499468373021
658,12438803750,-23.800546646118164,61.24238586425781,0.0016778564313426614,0.9999864410163584,0.0,-0.0,-0.005207473805720072,-1.0979309905678747e-08,8.363484482742933e-08,7.44819635656313e-06,4.713613452622667e-05,1.4863815522403456e-05,1.7276814645583727e-08,-1.4168950883686193e-06,1.7766447854228318e-05,-7.057192124193534e-05,0.0,-0.0,-0.01041499468373021
659,12448803750,-23.800546646118164,61.24238586425781,0.0016778564313426614,0.9999864410163584,0.0,-0.0,-0.005207473805720072,1.9095031333904444e-08,-5.962361626643542e-08,7.591247594973538e-06,-5.305915328790434e-05,-2.4501816369593143e-05,-1.596770182743512e-08,3.007433861057507e-06,-1.4325845768325962e-05,1.4305123841040768e-05,0.0,-0.0,-0.01041499468373021
660,12458803750,-23.800546646118164,61.24238586425781,0.0016778564313426614,0.9999864410163584,0.0,-0.0,-0.005207473805720072,-1.1591636983609988e-08,6.27692031685001e-08,6.4277646742993966e-06,4.7261932195397094e-05,1.4024225492903497e-05,1.4232039546868691e-08,-3.0686667287227465e-06,1.2239282114023808e-05,-0.00011634829570539296,0.0,-0.0,-0.01041499468373021
661,12468803750,-23.800546646118164,61.24238586425781,0.0016778564313426614,0.9999864410163584,0.0,-0.0,-0.005207473805720072,1.947329941742737e-08,-6.273698005543338e-08,6.4373016357421875e-06,-5.3196716180536896e-05,-2.514851075829938e-05,-1.4755388910714373e-08,3.1064935228641843e-06,-1.2550617611850612e-05,9.536961442790926e-07,0.0,-0.0,-0.01041499468373021
662,12478803749,-23.800546646118164,61.24238586425781,0.0016778564313426614,0.9999864410163584,0.0,-0.0,-0.005207473805720072,-1.1143053590956242e-08,6.248897932437103e-08,5.140304438100429e-06,4.734971298603341e-05,1.3375815797189716e-05,1.4611908127903916e-08,-3.0616351978096645e-06,1.252259698958369e-05,-0.00012969972158316523,0.0,-0.0,-0.01041499468373021
663,12488803749,-23.800546646118164,61.24238586425781,0.0016778564313426614,0.9999864410163584,0.0,-0.0,-0.005207473805720072,5.122993584905089e-09,-2.549952959896018e-08,5.455016889754916e-06,-2.2292799712886335e-06,-6.187619419506518e-06,-9.082617324907005e-09,1.6266046714008553e-06,-8.798851013125386e-06,3.1471245165448636e-05,0.0,-0.0,-0.01041499468373021
664,12498803749,-23.800546646118164,61.24238586425781,0.0016778564313426614,0.9999864410163584,0.0,-0.0,-0.005207473805720072,4.459545621671168e-09,-3.497016232145711e-09,6.151199158921372e-06,-1.9565425191103714e-06,-6.353035587380873e-06,1.2288835504747908e-09,-6.634479632339207e-08,2.2002514015184715e-06,6.961822509765625e-05,0.0,-0.0,-0.01041499468373021
665,12508803749,-23.800546646118164,61.24238586425781,0.0016778564313426614,0.9999864410163584,0.0,-0.0,-0.005207473805720072,-1.0016997897821511e-08,3.6574665074340373e-08,4.301070930523565e-06,4.879670814261772e-05,1.2825534213334322e-05,5.95375482248528e-09,-1.4476543128694175e-06,4.007168172392994e-06,-0.0001850128173828125,0.0,-0.0,-0.01041499468373021
666,12518803749,-23.800546646118164,61.24238586425781,0.0016778564313426614,0.9999864410163584,0.0,-0.0,-0.005207473805720072,5.501076483227507e-09,-2.8962221065853555e-08,4.472732598514995e-06,-6.412106472453161e-07,-6.7672958721232135e-06,-7.755980746537716e-09,1.5518073723796988e-06,-6.553688763233367e-06,1.7166166799142957e-05,0.0,-0.0,-0.01041499468373021
667,12528803748,-23.800546646118164,61.24238586425781,0.0016788863576948643,0.9999864410163584,0.0,-0.0,-0.005207473805720072,4.273823517308983e-09,-6.877625224888106e-08,4.301070930523565e-06,-8.892254118109122e-05,-6.105350621510297e-06,-4.355622529317316e-09,-1.2272529659185238e-07,-3.981403096986469e-06,-1.7166166799142957e-05,0.0,-0.0,-0.01041499468373021
668,12538803748,-23.800546646118164,61.24238586425781,0.0016788863576948643,0.9999864410163584,0.0,-0.0,-0.005207473805720072,5.620968579478358e-09,5.0584358035621335e-08,4.110336249141255e-06,-1.5252740013238508e-06,-7.300273409782676e-06,1.056165288559896e-08,1.34714511546008e-07,1.1936061127926223e-05,-1.9073468138230965e-05,0.0,-0.0,-0.01041499468373021
669,12548803748,-23.800546646118164,61.24238586425781,0.0016788863576948643,0.9999864410163584,0.0,-0.0,-0.005207473805720072,-9.15561315650848e-09,4.427667121831291e-08,3.566741952454322e-06,4.939552309224382e-05,1.1741350135707762e-05,2.6008952769274174e-09,-1.4776582020203932e-06,-6.307686817308422e-07,-5.4359428759198636e-05,0.0,-0.0,-0.01041499468373021
670,12558803748,-23.800546646118164,61.24238586425781,0.0016788863576948643,0.9999864410163584,0.0,-0.0,-0.005207473805720072,6.169151856028066e-09,-2.805760246360478e-08,3.604888888730784e-06,-3.0469763601104205e-07,-7.714573257544544e-06,-8.709958088104486e-09,1.532476517240866e-06,-7.233427368191769e-06,3.814693627646193e-06,0.0,-0.0,-0.01041499468373021
671,12568803747,-23.800546646118164,61.24238586425781,0.0016788863576948643,0.9999864410163584,0.0,-0.0,-0.005207473805720072,-1.0145620343848805e-08,-3.06502698776967e-08,3.7288664316292852e-06,-3.673188257380389e-05,1.2926528142997995e-05,1.1943180888707161e-09,-1.631477175578766e-06,-2.5926675562004675e-07,1.2397754289850127e-05,0.0,-0.0,-0.01041499468373021
672,12578803747,-23.800546646118164,61.24238586425781,0.0016788863576948643,0.9999864410163584,0.0,-0.0,-0.005207473805720072,6.582761002960069e-09,2.1570732755549216e-08,2.9945372261863668e-06,6.150058879939024e-07,-7.640320291102398e-06,2.6331883340446893e-09,1.6728382661312935e-06,5.2221002988517284e-06,-7.343292236328125e-05,0.0,-0.0,-0.01041499468373021
673,12588803747,-23.800546646118164,61.24238586425781,0.0016788863576948643,0.9999864410163584,0.0,-0.0,-0.005207473805720072,-9.058764405267539e-09,4.0167478232433496e-08,2.317428425158141e-06,5.134427919983864e-05,1.1536531928868499e-05,4.2490415630425105e-09,-1.5641525124010514e-06,1.8596745121612912e-06,-6.771087646484375e-05,0.0,-0.0,-0.01041499468373021
674,12598803747,-23.800546646118164,61.24238586425781,0.0016788863576948643,0.9999864410163584,0.0,-0.0,-0.005207473805720072,6.313153999570886e-09,-2.8435424681561017e-08,2.2220610844669864e-06,1.8020413108388311e-06,-7.94761763245333e-06,-8.197407197485518e-09,1.5371919062090456e-06,-6.860290341137443e-06,-9.536734069115482e-06,0.0,-0.0,-0.01041499468373021
675,12608803747,-23.800546646118164,61.24238586425781,0.0016788863576948643,0.9999864410163584,0.0,-0.0,-0.005207473805720072,0.0,-0.0,0.0,0.0,-0.0,-0.0,-6.313154017334455e-07,2.8435424610506743e-06,-0.00022220611572265625,0.0,-0.0,-0.01041499468373021
676,12618803746,-23.800546646118164,61.24238586425781,0.0016788863576948643,0.9999864410163584,0.0,-0.0,-0.005207473805720072,-1.0237913294908196e-10,-9.336961065420368e-11,2.8610227786884934e-07,-1.275863610317174e-07,1.359592118888031e-07,5.859564569665743e-12,-1.0237913627975104e-08,-9.336961426242851e-09,2.8610227673198096e-05,0.0,-0.0,-0.01041499468373021
677,12628803746,-23.800546646118164,61.24238586425781,0.0016788863576948643,0.9999864410163584,0.0,-0.0,-0.005207473805720072,-1.9719961774633532e-10,-1.1147042316972389e-10,5.722045557376987e-07,-2.5573601192263595e-07,2.7193499363420415e-07,1.2441535648943791e-11,-9.482048923814546e-09,-1.8100811960408691e-09,2.8610227673198096e-05,0.0,-0.0,-0.01041499468373021
678,12638803746,-23.800546646118164,61.24238586425781,0.0016788863576948643,0.9999864410163584,0.0,-0.0,-0.005207473805720072,-2.9169699988784714e-10,-1.1870171512384786e-10,8.583068620282575e-07,-3.839694784346648e-07,4.079112443378108e-07,1.4087802972795327e-11,-9.449737881084275e-09,-7.231292231679731e-10,2.8610231311176904e-05,0.0,-0.0,-0.01041499468373021
679,12648803746,-23.800546646118164,61.24238586425781,0.0016788863576948643,0.9999864410163584,0.0,-0.0,-0.005207473805720072,-3.8616843056615835e-10,-1.2436031371354517e-10,1.1444091114753974e-06,-5.122114430378133e-07,5.438881203190249e-07,1.4398300260398678e-11,-9.44714351192033e-09,-5.658598589697306e-10,2.8610225854208693e-05,0.0,-0.0,-0.01041499468373021
680,12658803745,-23.800546646118164,61.24238586425781,0.0016788863576948643,0.9999864410163584,0.0,-0.0,-0.005207473805720072,-4.80636364041942e-10,-1.2979506358590243e-10,1.430511474609375e-06,-6.404563350770331e-07,6.79864797348273e-07,1.4450040122793162e-11,-9.446793569622969e-09,-5.434749872357258e-10,2.8610236768145114e-05,0.0,-0.0,-0.01041499468373021
681,12668803745,-23.800546646118164,61.24238586425781,0.0016788863576948643,0.9999864410163584,0.0,-0.0,-0.005207473805720072,-5.751038534285158e-10,-1.3519556307795e-10,1.716613724056515e-06,-7.686998060307815e-07,8.158414743775211e-07,1.4456497630932486e-11,-9.446749160701984e-09,-5.400499492047572e-10,2.8610225854208693e-05,0.0,-0.0,-0.01041499468373021
682,12678803745,-23.800546646118164,61.24238586425781,0.0016788863576948643,0.9999864410163584,0.0,-0.0,-0.005207473805720072,-6.695713428150896e-10,-1.4059206576710892e-10,2.002715973503655e-06,-8.969430496108544e-07,9.518182650936069e-07,1.4457666834555294e-11,-9.446749160701984e-09,-5.396502689158922e-10,2.8610225854208693e-05,0.0,-0.0,-0.01041499468373021
683,12688803745,-23.800546646118164,61.24238586425781,0.0016788863576948643,0.9999864410163584,0.0,-0.0,-0.005207473805720072,1.4689009120161245e-08,2.647797359145443e-08,1.115798909268051e-06,3.5341294278623536e-05,-1.9446151782176457e-05,3.0580268872704153e-10,1.5358580185420578e-06,2.661856569829979e-06,-8.869170414982364e-05,0.0,-0.0,-0.01041499468373021
684,12698803745,-23.800546646118164,61.24238586425781,0.0016788863576948643,0.9999864410163584,0.0,-0.0,-0.005207473805720072,-1.9549144525399242e-09,-2.3076644595221296e-08,1.058578504853358e-06,-3.132149458906497e-06,1.048942749548587e-06,-2.241276275682935e-09,-1.664392357270117e-06,-4.9554619181435555e-06,-5.722040441469289e-06,0.0,-0.0,-0.01041499468373021
685,12708803744,-23.800546646118164,61.24238586425781,0.0016788863576948643,0.9999864410163584,0.0,-0.0,-0.005207473805720072,-9.160675551456166e-10,-4.636389050460821e-09,1.306533818024036e-06,-4.879099378740648e-06,1.226964400302677e-06,1.3523521191771692e-09,1.0388468751898472e-07,1.8440255189489108e-06,2.47955322265625e-05,0.0,-0.0,-0.01041499468373021
686,12718803744,-23.800546646118164,61.24238586425781,0.0016788863576948643,0.9999864410163584,0.0,-0.0,-0.005207473805720072,-9.676482948250964e-10,-2.04079020349468e-09,1.554489131194714e-06,-6.50728497930686e-06,1.402229827363044e-06,3.8940750624050224e-10,-5.158073967947985e-09,2.5955989713111194e-07,2.47955322265625e-05,0.0,-0.0,-0.01041499468373021
687,12728803744,-23.800546646118164,61.24238586425781,0.0016788863576948643,0.9999864410163584,0.0,-0.0,-0.005207473805720072,-1.313443021011551e-09,-1.2027501217204417e-09,1.8119811784345075e-06,-7.394597560050897e-06,1.895203808999213e-06,1.6784344747389213e-10,-3.457947173046705e-08,8.38040108419591e-08,2.5749204723979346e-05,0.0,-0.0,-0.01041499468373021
688,12738803744,-23.800546646118164,61.24238586425781,0.0016788863576948643,0.9999864410163584,0.0,-0.0,-0.005207473805720072,-1.6518182377467383e-09,-1.1161277457816254e-09,2.069473111987463e-06,-8.276281732833013e-06,2.3881441393314162e-06,7.358202241958267e-11,-3.383752300578635e-08,8.662237149792418e-09,2.5749193810042925e-05,0.0,-0.0,-0.01041499468373021
689,12748803743,-23.800546646118164,61.24238586425781,0.0016788863576948643,0.9999864410163584,0.0,-0.0,-0.005207473805720072,-1.1136951361123693e-09,6.335570645887856e-08,1.5640258652638295e-06,7.889873086242005e-05,1.6530102584511042e-06,5.980770101388089e-09,5.3812311051615325e-08,6.44718329567695e-06,-5.054472421761602e-05,0.0,-0.0,-0.01041499468373021
690,12758803743,-23.800546646118164,61.24238586425781,0.0016788863576948643,0.9999864410163584,0.0,-0.0,-0.005207473805720072,-1.6330223839844393e-09,1.1417646383904412e-08,1.7738342421580455e-06,7.78063913458027e-05,1.7150783833130845e-06,-4.186299751296474e-09,-5.193272301085017e-08,-5.193805918679573e-06,2.0980838598916307e-05,0.0,-0.0,-0.01041499468373021
691,12768803743,-23.800546646118164,61.24238586425781,0.0016788863576948643,0.9999864410163584,0.0,-0.0,-0.005207473805720072,-1.7378706473891725e-08,-3.322768904467921e-08,2.4127959932229714e-06,2.5726518288138323e-05,2.2538453777087852e-05,-2.3689425976414213e-09,-1.574568386786268e-06,-4.464533503778512e-06,6.389617192326114e-05,0.0,-0.0,-0.01041499468373021
692,12778803743,-23.800546646118164,61.24238586425781,0.0016788863576948643,0.9999864410163584,0.0,-0.0,-0.005207473805720072,1.4235570056086999e-08,-4.996304703297483e-09,1.7642973944020923e-06,2.3617740225745365e-05,-1.7676427887636237e-05,-2.10882333817608e-09,3.1614276849722955e-06,2.8231384021637496e-06,-6.484986079158261e-05,0.0,-0.0,-0.01041499468373021
693,12788803743,-23.800546646118164,61.24238586425781,0.0016788863576948643,0.9999864410163584,0.0,-0.0,-0.005207473805720072,1.2201727628280423e-08,-2.0286299307059608e-09,1.964569037227193e-06,2.057207893813029e-05,-1.7573942386661656e-05,3.5305267043206356e-10,-2.0338424633337127e-07,2.967674674891896e-07,2.0027164282510057e-05,0.0,-0.0,-0.01041499468373021
694,12798803742,-23.800546646118164,61.24238586425781,0.0016788863576948643,0.9999864410163584,0.0,-0.0,-0.005207473805720072,1.153523498942377e-08,-6.522562046029634e-08,1.3923644246460753e-06,-6.914586992934346e-05,-1.6656229490763508e-05,-5.798857394267998e-09,-6.664926388566528e-08,-6.319699423329439e-06,-5.722046262235381e-05,0.0,-0.0,-0.01041499468373021
695,12808803742,-23.800546646118164,61.24238586425781,0.0016788863576948643,0.9999864410163584,0.0,-0.0,-0.005207473805720072,1.1982144165756381e-08,-1.3746793925406564e-08,1.5449523971255985e-06,-7.132120663300157e-05,-1.658376640989445e-05,4.1720040755421905e-09,4.469091763326105e-08,5.147882802702952e-06,1.5258796338457614e-05,0.0,-0.0,-0.01041499468373021
696,12818803742,-23.800546646118164,61.24238586425781,0.0016788863576948643,0.9999864410163584,0.0,-0.0,-0.005207473805720072,-2.802230447684906e-09,3.101738954569555e-08,2.117157009706716e-06,-2.210258571722079e-05,3.1471397505811183e-06,6.739106606090672e-09,-1.4784374116061372e-06,4.476418325793929e-06,5.722046262235381e-05,0.0,-0.0,-0.01041499468373021
697,12828803742,-23.800546646118164,61.24238586425781,0.0016788863576948643,0.9999864410163584,0.0,-0.0,-0.005207473805720072,-2.3771227208868595e-09,2.929434694820543e-09,7.820129326319147e-07,-2.277226303704083e-05,3.6125911719864234e-06,-2.0062833616663056e-09,4.251077356798305e-08,-2.808795443343115e-06,-0.00013351441884879023,0.0,-0.0,-0.01041499468373021
698,12838803741,-23.800546646118164,61.24238586425781,0.0016788863576948643,0.9999864410163584,0.0,-0.0,-0.005207473805720072,-2.722616132544431e-09,-1.2009981897875832e-09,8.964538551481382e-07,-2.3683003746555187e-05,4.0787381294649094e-06,-5.44097933374843e-10,-3.454934116575714e-08,-4.1304329556624e-07,1.1444091796875e-05,0.0,-0.0,-0.01041499468373021
699,12848803741,-23.800546646118164,61.24238586425781,0.0016788863576948643,0.9999864410163584,0.0,-0.0,-0.005207473805720072,-3.0505655779222707e-09,-1.8339277874090953e-09,1.0108947208209429e-06,-2.4619948817417026e-05,4.545127012534067e-06,-6.861231027777137e-11,-3.279494364960556e-08,-6.329295842988358e-08,1.144408633990679e-05,0.0,-0.0,-0.01041499468373021
700,12858803741,-23.800546646118164,61.24238586425781,0.0016788863576948643,0.9999864410163584,0.0,-0.0,-0.005207473805720072,-3.372379930866032e-09,-1.9622345970304877e-09,1.1253356433371664e-06,-2.556067192927003e-05,5.011556822864804e-06,2.65379003494548e-11,-3.2181436182554535e-08,-1.283068051805003e-08,1.1444091796875e-05,0.0,-0.0,-0.01041499468373021
701,12868803741,-23.800546646118164,61.24238586425781,0.0016788863576948643,0.9999864410163584,0.0,-0.0,-0.005207473805720072,-3.6931975255782845e-09,-2.0177279846933516e-09,1.23977656585339e-06,-2.6501935280975886e-05,5.477992544911103e-06,4.3061401666655286e-11,-3.208175769486843e-08,-5.5493387662863825e-09,1.1444091796875e-05,0.0,-0.0,-0.01041499468373021
702,12878803741,-23.800546646118164,61.24238586425781,0.0016788863576948643,0.9999864410163584,0.0,-0.0,-0.005207473805720072,1.1507723662873559e-08,2.5551251781052997e-08,1.6689300537109375e-06,1.0274957276124042e-05,-1.4681455468235072e-05,4.204276093933146e-10,1.5200921552604996e-06,2.7568980840442237e-06,4.291534787626006e-05,0.0,-0.0,-0.01041499468373021
703,12888803740,-23.800546646118164,61.24238586425781,0.0016788863576948643,0.9999864410163584,0.0,-0.0,-0.005207473805720072,-5.263556257517621e-09,-2.3705711171828625e-08,1.4781951449549524e-06,-2.74680060101673e-05,5.996614618197782e-06,-2.1839052788408253e-09,-1.6771278978922055e-06,-4.925695975543931e-06,-1.9073489966103807e-05,0.0,-0.0,-0.01041499468373021
704,12898803740,-23.800546646118164,61.24238586425781,0.0016788863576948643,0.9999864410163584,0.0,-0.0,-0.005207473805720072,1.0861515242766018e-08,2.2727030923874736e-08,1.9073486328125e-06,9.649637831898872e-06,-1.3866888366464991e-05,1.8303011328768548e-09,1.612507048776024e-06,4.643274223781191e-06,4.291534787626006e-05,0.0,-0.0,-0.01041499468373021
705,12908803740,-23.800546646118164,61.24238586425781,0.0016788863576948643,0.9999864410163584,0.0,-0.0,-0.005207473805720072,-6.058190837876509e-09,-2.3784446412378202e-08,1.716613724056515e-06,-2.763176780717913e-05,7.104382802936016e-06,-1.7607265645480652e-09,-1.6919706240514643e-06,-4.651147719414439e-06,-1.9073489966103807e-05,0.0,-0.0,-0.01041499468373021
706,12918803740,-23.800546646118164,61.24238586425781,0.0016788863576948643,0.9999864410163584,0.0,-0.0,-0.005207473805720072,1.0085249080304948e-08,2.2715148872975988e-08,2.1457672119140625e-06,9.485373084316961e-06,-1.2759086530422792e-05,1.8775350163480198e-09,1.6143440006999299e-06,4.649959464586573e-06,4.291534787626006e-05,0.0,-0.0,-0.01041499468373021
707,12928803739,-23.800546646118164,61.24238586425781,0.0016788863576948643,0.9999864410163584,0.0,-0.0,-0.005207473805720072,-6.239361916016151e-09,4.0921470656485326e-08,1.182556161438697e-06,6.055237099644728e-05,7.359531537076691e-06,4.233081885018919e-09,-1.6324611351592466e-06,1.8206321783509338e-06,-9.632110595703125e-05,0.0,-0.0,-0.01041499468373021
708,12938803739,-23.800546646118164,61.24238586425781,0.0016788863576948643,0.9999864410163584,0.0,-0.0,-0.005207473805720072,-6.060543622510295e-09,8.222738934193785e-09,1.2493132999225054e-06,6.0401380324037746e-05,8.063524546741974e-06,-2.659496178836207e-09,1.7881829350585576e-08,-3.2698733321012696e-06,6.675713848380838e-06,0.0,-0.0,-0.01041499468373021
709,12948803739,-23.800546646118164,61.24238586425781,0.0016788863576948643,0.9999864410163584,0.0,-0.0,-0.005207473805720072,-6.345768799320695e-09,3.008314042318716e-09,1.325607286162267e-06,5.9378482546890154e-05,8.449628694506828e-06,-7.203200813599153e-10,-2.852251768103997e-08,-5.214424732002954e-07,7.629398169228807e-06,0.0,-0.0,-0.01041499468373021
710,12958803739,-23.800546646118164,61.24238586425781,0.0016788863576948643,0.9999864410163584,0.0,-0.0,-0.005207473805720072,-6.3778400338776464e-09,1.7730104051594253e-09,1.3923644246460753e-06,5.772135409642942e-05,8.517089554516133e-06,-1.8448895189315806e-10,-3.207123455695182e-09,-1.23530369933178e-07,6.675713848380838e-06,0.0,-0.0,-0.01041499468373021
711,12968803739,-23.800546646118164,61.24238586425781,0.0016788863576948643,0.9999864410163584,0.0,-0.0,-0.005207473805720072,-2.1989055909443778e-08,-3.556273853178027e-08,1.8882750509874313e-06,5.403790510172257e-06,2.9288583391462453e-05,-1.292516316198089e-09,-1.5611215076205553e-06,-3.7335748857003637e-06,4.9591064453125e-05,0.0,-0.0,-0.01041499468373021
712,12978803738,-23.800546646118164,61.24238586425781,0.0016788863576948643,0.9999864410163584,0.0,-0.0,-0.005207473805720072,-5.394133584246674e-09,3.04902094683257e-08,1.5449523971255985e-06,5.3298354032449424e-05,8.986965440271888e-06,3.695396877390067e-09,1.6594922271906398e-06,6.605294856854016e-06,-3.433226447668858e-05,0.0,-0.0,-0.01041499468373021
713,12988803738,-23.800546646118164,61.24238586425781,0.0016788863576948643,0.9999864410163584,0.0,-0.0,-0.005207473805720072,8.54372927960867e-09,-2.279123201276434e-08,1.9359588350198464e-06,1.3214203136158176e-05,-1.1062785233661998e-05,-6.61175514338197e-09,1.3937861922386219e-06,-5.328143743099645e-06,3.910064333467744e-05,0.0,-0.0,-0.01041499468373021
714,12998803738,-23.800546646118164,61.24238586425781,0.0016788863576948643,0.9999864410163584,0.0,-0.0,-0.005207473805720072,7.547203750846165e-09,-1.420716166933289e-08,1.2683867680607364e-06,-2.508480747565045e-06,-1.0909529919445049e-05,2.704850787793589e-10,-9.965255287625041e-08,8.584070201322902e-07,-6.675720942439511e-05,0.0,-0.0,-0.01041499468373021
715,13008803738,-23.800546646118164,61.24238586425781,0.0016788863576948643,0.9999864410163584,0.0,-0.0,-0.005207473805720072,7.563694559564738e-09,-4.291154986901802e-09,1.325607286162267e-06,-5.4213846851780545e-06,-1.0804760677274317e-05,9.558178692969932e-10,1.6490808718572225e-09,9.91600700217532e-07,5.7220518101530615e-06,0.0,-0.0,-0.01041499468373021
716,13018803737,-23.800546646118164,61.24238586425781,0.0016788863576948643,0.9999864410163584,0.0,-0.0,-0.005207473805720072,7.28764559809747e-09,-2.4940975951182054e-09,1.3828276905769599e-06,-7.607400220877025e-06,-1.0382163964095525e-05,3.0594676792006226e-10,-2.7604896146726787e-08,1.7970573651382438e-07,5.722040441469289e-06,0.0,-0.0,-0.01041499468373021
717,13028803737,-23.800546646118164,61.24238586425781,0.0016788863576948643,0.9999864410163584,0.0,-0.0,-0.005207473805720072,0.0,-0.0,0.0,0.0,-0.0,-0.0,-7.287645757969585e-07,2.494097657290695e-07,-0.00013828277587890625,0.0,-0.0,-0.01041499468373021
718,13038803737,-23.800546646118164,61.24238586425781,0.0016788863576948643,0.9999864410163584,0.0,-0.0,-0.005207473805720072,-3.170566309496081e-10,-1.5823077292864696e-09,4.768371297814156e-08,-2.1606992959277704e-06,4.223240068768064e-07,-1.0320665849716804e-10,-3.170566387211693e-08,-1.5823077603727143e-07,4.768371127283899e-06,0.0,-0.0,-0.01041499468373021
719,13048803737,-23.800546646118164,61.24238586425781,0.0016788863576948643,0.9999864410163584,0.0,-0.0,-0.005207473805720072,-6.01834526658962e-10,-1.8997710071744223e-09,1.0490417423625331e-07,-4.330874162405962e-06,8.447779578091286e-07,2.7020426911564255e-13,-2.8477789015823873e-08,-3.174632823288448e-08,5.7220458984375e-06,0.0,-0.0,-0.01041499468373021
720,13058803737,-23.800546646118164,61.24238586425781,0.0016788863576948643,0.9999864410163584,0.0,-0.0,-0.005207473805720072,-8.837362508451463e-10,-2.0346968554463274e-09,1.6212463549436507e-07,-6.50241690891562e-06,1.2672480806941167e-06,2.756437439410675e-11,-2.819017197452922e-08,-1.3492584827190512e-08,5.7220458984375e-06,0.0,-0.0,-0.01041499468373021
721,13068803736,-23.800546646118164,61.24238586425781,0.0016788863576948643,0.9999864410163584,0.0,-0.0,-0.005207473805720072,-1.4055715480409958e-09,-1.6579243533598742e-09,2.0980834847250662e-07,-8.01173155196011e-06,2.0081545244465815e-06,1.1263870391964304e-10,-5.218353038571877e-08,3.767724976455611e-08,4.768371127283899e-06,0.0,-0.0,-0.01041499468373021
722,13078803736,-23.800546646118164,61.24238586425781,0.0016788863576948643,0.9999864410163584,0.0,-0.0,-0.005207473805720072,-1.914445046935498e-09,-1.6627803578472822e-09,2.5749204723979346e-07,-9.518186743662227e-06,2.749058694462292e-06,8.368836873495766e-11,-5.0887351221717836e-08,-4.856004487407972e-10,4.7683697630418465e-06,0.0,-0.0,-0.01041499468373021
723,13088803736,-23.800546646118164,61.24238586425781,0.0016788863576948643,0.9999864410163584,0.0,-0.0,-0.005207473805720072,-2.4235755624602007e-09,-1.7226804427394882e-09,3.0517577442878974e-07,-1.102423539123265e-05,3.489957634883467e-06,7.557523357126783e-11,-5.091305155247028e-08,-5.9900084892205996e-09,4.768372491525952e-06,0.0,-0.0,-0.01041499468373021
724,13098803736,-23.800546646118164,61.24238586425781,0.0016788863576948643,0.9999864410163584,0.0,-0.0,-0.005207473805720072,-2.6842879030652966e-09,-1.198204535590719e-09,3.433227391269611e-07,-1.1721263945219107e-05,3.9004694372124504e-06,9.407429696350889e-11,-2.6071234060509596e-08,5.2447589382609294e-08,3.8146963561302982e-06,0.0,-0.0,-0.01041499468373021
725,13108803735,-23.800546646118164,61.24238586425781,0.0016788863576948643,0.9999864410163584,0.0,-0.0,-0.005207473805720072,-2.718039349147716e-09,-6.46827646999526e-10,3.8146970382513246e-07,-1.1728389836207498e-05,3.9815249692765065e-06,6.6116674635186e-11,-3.3751446082419534e-09,5.513768996934232e-08,3.8146963561302982e-06,0.0,-0.0,-0.01041499468373021
726,13118803735,-23.800546646118164,61.24238586425781,0.0016788863576948643,0.9999864410163584,0.0,-0.0,-0.005207473805720072,-2.773299145886199e-09,-5.668944758063788e-10,4.1961669694501325e-07,-1.1731983249774203e-05,4.062515472469386e-06,2.2082792192068545e-11,-5.525979673848269e-09,7.993317119314725e-09,3.8146990846144035e-06,0.0,-0.0,-0.01041499468373021
727,13128803735,-23.800521850585938,61.24238586425781,0.0016799544682726264,0.9999864512798754,1.7243166072570816e-07,8.335786815263419e-07,-0.005205502469192978,0.002727947197854519,4.562496906146407e-05,8.48770127959142e-07,-0.0007063727825880051,-0.008477011695504189,0.022905167192220688,0.2727949917316437,0.004562553483992815,4.291534423828125e-05,3.361802572253633e-07,1.6689299620762925e-06,-0.010411051956960132
728,13138803735,-23.797775268554688,61.24235153198242,0.0016562652308493853,0.9999864552419698,-2.3807473417868185e-08,-3.457103689931524e-05,-0.0052046265420857005,0.2716694176197052,-0.0028240338433533907,-8.106231348392612e-07,0.00434557581320405,0.40424641966819763,0.010032623074948788,26.894145965576172,-0.28696587681770325,-0.0001659393310546875,3.122443713107497e-07,-6.914138515907603e-05,-0.010409300096305564
729,13148803735,-23.792428970336914,61.2422981262207,0.0016178512014448643,0.9999864538574978,-3.3815062611645913e-07,-9.173102898526732e-05,-0.005204198959524466,0.5299670696258545,-0.00553212920203805,-7.438659395120339e-07,0.007008182350546122,0.6546798348426819,0.004906476940959692,25.82976531982422,-0.270809531211853,6.675719305349048e-06,2.784809649293507e-07,-0.00018346309340281521,-0.010408444971924296
730,13158803734,-23.784643173217773,61.24221420288086,0.001569785992614925,0.9999864460735615,-7.235632903283075e-07,-0.00016313635389062116,-0.0052039461156659465,0.7725940346717834,-0.008058751933276653,-3.9100646631595737e-07,0.008686412125825882,0.8193058371543884,0.002895487705245614,24.262697219848633,-0.2526622712612152,3.528594606905244e-05,2.5079863724611387e-07,-0.0003262758220627087,-0.010407939387436102
731,13168803734,-23.774723052978516,61.24211120605469,0.001517448341473937,0.9999864311355063,-1.1346742089249906e-06,-0.00024133654919162496,-0.00520377749869448,0.985370397567749,-0.010271524079144001,-3.290176209702622e-06,0.009362680837512016,0.8949329853057861,0.0018983568297699094,21.27763557434082,-0.22127720713615417,-0.00028991696308366954,2.424058114607557e-07,-0.0004826783769838904,-0.010407602331110639
732,13178803734,-23.762842178344727,61.24198913574219,0.0014632033417001367,0.9999864089844569,-1.559456298189565e-06,-0.0003219209191641633,-0.005203672824127482,1.181676983833313,-0.012313153594732285,-2.422332727292087e-06,0.009678781032562256,0.9239290356636047,0.0011931413318961859,19.630659103393555,-0.20416295528411865,8.678434824105352e-05,2.314721179332954e-07,-0.0006438493621483794,-0.010407393231353175
733,13188803734,-23.74979591369629,61.24185562133789,0.0014153289375826716,0.9999863839323667,-1.9389446135580775e-06,-0.00039314743492683727,-0.005203593105193516,1.2984871864318848,-0.013528786599636078,-1.6021728015402914e-06,0.008595743216574192,0.816131055355072,0.000912595889531076,11.681020736694336,-0.12156330049037933,8.20159912109375e-05,2.1372220397495793e-07,-0.0007863044235925374,-0.01040723406586615
734,13198803733,-23.734813690185547,61.24169921875,0.0013650130713358521,0.9999863518177723,-2.331998843155678e-06,-0.0004679502081862508,-0.005203575246579404,1.4921040534973145,-0.015544233843684196,-1.6689300537109375e-06,0.00896712951362133,0.8573957085609436,0.0002221841859864071,19.36168670654297,-0.20154473185539246,-6.67572521706461e-06,2.0609429894050826e-07,-0.0009359120491284296,-0.010407198695757923
735,13208803733,-23.71829605102539,61.24152374267578,0.0013177490327507257,0.9999863164091222,-2.691051568838018e-06,-0.0005385212021715173,-0.005203554764587987,1.645967960357666,-0.017146151512861252,-1.7547606603329768e-06,0.008317539468407631,0.8081703782081604,0.00020666694035753608,15.386390686035156,-0.16019177436828613,-8.583060662203934e-06,2.2241977261280928e-07,-0.001077055880843495,-0.010407158124163192
736,13218803733,-23.70049285888672,61.241336822509766,0.001275024376809597,0.9999862802265186,-3.0195051679275513e-06,-0.0006021781194054652,-0.005203530640396913,1.7750920057296753,-0.018488232046365738,-3.1185149964585435e-06,0.007555758580565453,0.729051411151886,0.00028928567189723253,12.912405014038086,-0.1342080533504486,-0.00013637542724609375,2.2797727394631695e-07,-0.0012043714306503518,-0.010407110270487354
737,13228803733,-23.681413650512695,61.24113464355469,0.0012362670386210084,0.9999862439440393,-3.315309291133133e-06,-0.0006598150209612296,-0.005203513797340484,1.9030181169509888,-0.019819209352135658,-4.701614216173766e-06,0.00683601014316082,0.6613550782203674,0.00017498974921181798,12.792611122131348,-0.13309773802757263,-0.00015830992197152227,2.3618596507760069e-07,-0.0013196467745533519,-0.010407076980973729
738,13238803733,-23.661632537841797,61.24093246459961,0.0012057494604960084,0.9999862131262099,-3.5475811988131736e-06,-0.0007051139659574128,-0.005203494903607515,1.9742954969406128,-0.02056374028325081,-7.06672653905116e-06,0.005363559816032648,0.5191381573677063,0.00023205460456665605,7.127737998962402,-0.07445309311151505,-0.00023651123046875,2.430495208135166e-07,-0.001410245876369599,-0.0104070395302709
739,13248803732,-23.640670776367188,61.2407112121582,0.0011776733445003629,0.9999861826738596,-3.7627485458206896e-06,-0.000746836604036934,-0.005203525947943363,2.0928046703338623,-0.021800460293889046,-5.9890744523727335e-06,0.004946029745042324,0.47740036249160767,-0.0003724834241438657,11.85091781616211,-0.1236720010638237,0.00010776521230582148,2.469744620808525e-07,-0.0014936922840569488,-0.010407101948108947
740,13258803732,-23.61904525756836,61.24048614501953,0.001156120328232646,0.999986157215058,-3.926553164683439e-06,-0.0007788439130290178,-0.005203726069132071,2.1600210666656494,-0.022498194128274918,-3.976821972173639e-06,0.003785178530961275,0.3668903708457947,-0.0022810858208686113,6.721639633178711,-0.06977338343858719,0.0002012252516578883,2.5278343420658835e-07,-0.0015577077586854033,-0.010407502462569761
741,13268803732,-23.596452713012695,61.24025344848633,0.0011376570910215378,0.9999861358041211,-4.071751748852276e-06,-0.0008065000220002799,-0.005203627645921974,2.2569565773010254,-0.02350575663149357,-7.276534688571701e-06,0.003310222877189517,0.31655338406562805,0.0011093872599303722,9.693551063537598,-0.10075625032186508,-0.00032997128437273204,2.500613525669936e-07,-0.001613020756281076,-0.010407305846379908
742,13278803732,-23.573238372802734,61.240013122558594,0.0011239242739975452,0.9999861212569017,-4.174598498724239e-06,-0.0008268249537999533,-0.005203233287657715,2.3198513984680176,-0.024164510890841484,-6.0081479205109645e-06,0.002394936978816986,0.23297709226608276,0.004538022447377443,6.289482116699219,-0.06587542593479156,0.00012683868408203125,2.5524547326833416e-07,-0.0016536711535332883,-0.010406517301025892
743,13288803731,-23.549240112304688,61.23976516723633,0.0011132049839943647,0.9999861067542096,-4.259144552178207e-06,-0.0008426199462609189,-0.005203486527720499,2.3984720706939697,-0.024984829127788544,-4.20570358983241e-06,0.0019146304111927748,0.18160848319530487,-0.00292553030885756,7.862067222595215,-0.08203182369470596,0.00018024443124886602,2.509526754084534e-07,-0.0016852616015927272,-0.010407023925811387
744,13298803731,-23.524641036987305,61.23950958251953,0.0011059188982471824,0.9999860942078934,-4.321682833363234e-06,-0.0008533486084497791,-0.005204149144443961,2.459111452102661,-0.025612687692046165,-3.7384031656984007e-06,0.001351229497231543,0.12305807322263718,-0.0075659314170479774,6.063938140869141,-0.06278585642576218,4.673004150390625e-05,2.386617348700167e-07,-0.0017067192938679302,-0.010408349264572622
745,13308803731,-23.49936866760254,61.2392463684082,0.0011013030307367444,0.9999860891879605,-4.349788625990791e-06,-0.0008602626942054134,-0.005203975378908968,2.5264053344726562,-0.026312317699193954,-2.880096417356981e-06,0.0007307484629563987,0.07871440798044205,0.001992405392229557,6.729388236999512,-0.0699630007147789,8.583067392464727e-05,2.5411590240765e-07,-0.001720547575776139,-0.010408001805274151
746,13318803731,-23.47356605529785,61.23897933959961,0.0010994338663294911,0.9999860891370533,-4.363299451977773e-06,-0.0008630044935204362,-0.005203531165175655,2.580118417739868,-0.026873275637626648,-2.6607513063936494e-06,0.00032091085449792445,0.031246526166796684,0.005080543924123049,5.371308326721191,-0.05609579384326935,2.1934511096333154e-05,2.5486442565013967e-07,-0.0017260312429230452,-0.010407113391379256
747,13328803730,-23.447147369384766,61.238704681396484,0.001099395682103932,0.9999860891370533,-4.363299451977773e-06,-0.0008630044935204362,-0.005203531165175655,2.6417765617370605,-0.02751939184963703,-2.346038854739163e-06,9.081362804863602e-06,-2.1015837774029933e-05,-0.001343685551546514,6.165814399719238,-0.06461162120103836,3.1471245165448636e-05,2.5486442565013967e-07,-0.0017260312429230452,-0.010407113391379256
748,13338803730,-23.420263290405273,61.238426208496094,0.0011016845237463713,0.9999860900522002,-4.353480554157026e-06,-0.0008596070189760147,-0.005203917652378622,2.6890676021575928,-0.028013689443469048,-1.0490417707842425e-06,-0.00032661284785717726,-0.038777317851781845,-0.0031053510028868914,4.729104042053223,-0.0494297593832016,0.00012969970703125,2.398086397860672e-07,-0.0017192362810284651,-0.01040788633227376
749,13348803730,-23.39280891418457,61.23814010620117,0.0011052321642637253,0.9999860942928205,-4.318999646079504e-06,-0.0008543619503327981,-0.005203966563518151,2.7455897331237793,-0.02860203944146633,-1.0871887070607045e-06,-0.0007121491362340748,-0.06046310439705849,-0.000528827600646764,5.652213096618652,-0.058834999799728394,-3.814693627646193e-06,2.542632418782637e-07,-0.001708745923047075,-0.010407984120220037
750,13358803730,-23.364933013916016,61.237850189208984,0.0011105346493422985,0.999986101080322,-4.277471922761536e-06,-0.0008464346064214621,-0.005203957756979612,2.7883007526397705,-0.029046352952718735,-1.3828276905769599e-06,-0.0009436727850697935,-0.09037237614393234,8.907025039661676e-05,4.271101951599121,-0.044431351125240326,-2.956389835162554e-05,2.5479529578647635e-07,-0.0016928910119597214,-0.010407966435165924
751,13368803730,-23.336538314819336,61.237552642822266,0.0011166762560606003,0.999986108503329,-4.234997020002075e-06,-0.0008373152010006996,-0.005204006695526963,2.840390920639038,-0.02958974987268448,-1.306533818024036e-06,-0.0010318582644686103,-0.10457824915647507,-0.0005818486679345369,5.209016799926758,-0.0543396919965744,7.629387255292386e-06,2.449117888606462e-07,-0.0016746519995332314,-0.010408064223112199
752,13378803729,-23.30775260925293,61.23725509643555,0.0011241149622946978,0.9999861173917689,-4.176983035505225e-06,-0.0008262289082954073,-0.005204070721961121,2.879413366317749,-0.02999487891793251,-9.72747784544481e-07,-0.0013301451690495014,-0.1273839771747589,-0.0007141974056139588,3.9022445678710938,-0.04051290452480316,3.337860471219756e-05,2.4565758183067886e-07,-0.0016524791028637202,-0.0104081921796802
753,13388803729,-23.27848243713379,61.2369499206543,0.0011320876656100154,0.9999861268130013,-4.11590025444713e-06,-0.0008143677297705299,-0.005204130070662475,2.9278624057769775,-0.030501093715429306,-1.3160705520931515e-06,-0.0014022632967680693,-0.13537850975990295,-0.0006818323163315654,4.844903945922852,-0.050621479749679565,-3.4332275390625e-05,2.444651988298074e-07,-0.0016287564232903239,-0.010408310773572491
754,13398803729,-23.24885368347168,61.23664474487305,0.0011407851707190275,0.9999861372882374,-4.047741145307629e-06,-0.0008010164724117711,-0.005204189425561976,2.963886260986328,-0.030875924974679947,-1.3732909565078444e-06,-0.0015730467857792974,-0.1525324583053589,-0.000673120201099664,3.6023855209350586,-0.03748312592506409,-5.722040441469289e-06,2.4191315601904415e-07,-0.001602053552024426,-0.010408429367464785
755,13408803729,-23.218774795532227,61.236331939697266,0.0011499404208734632,0.9999861477350822,-3.978583657236595e-06,-0.0007874267938143116,-0.005204256062674562,3.009324073791504,-0.03135164827108383,1.7738342421580455e-06,-0.0016024733195081353,-0.15561935305595398,-0.0007548711146228015,4.543781280517578,-0.04757232964038849,0.0003147125244140625,2.3888453780144677e-07,-0.0015748738344832681,-0.010408562525519287
756,13418803728,-23.188356399536133,61.23601531982422,0.0011597824050113559,0.9999861587564507,-3.90478270833935e-06,-0.0007728238762479662,-0.005204327384742181,3.042919874191284,-0.0317029170691967,1.1730194273695815e-06,-0.001727274153381586,-0.16829821467399597,-0.0008084120927378535,3.3595800399780273,-0.035126879811286926,-6.008148193359375e-05,2.3459988313790564e-07,-0.001545667617800128,-0.0104087050462495
757,13428803728,-23.157508850097656,61.23569107055664,0.0011696242727339268,0.9999861696260466,-3.835028551377179e-06,-0.0007581612496059164,-0.005204395588339696,3.085846185684204,-0.03215014934539795,1.163482693300466e-06,-0.0016693270299583673,-0.16753338277339935,-0.0007967661949805915,4.292631149291992,-0.04472322762012482,-9.536734069115482e-07,2.2159135715359925e-07,-0.0015163420270017198,-0.010408841325195905
758,13438803728,-23.126346588134766,61.2353630065918,0.0011800002539530396,0.999986180792223,-3.7601951075144456e-06,-0.0007428430581817126,-0.005204459110725423,3.11747670173645,-0.032477181404829025,1.554489131194714e-06,-0.0017845056718215346,-0.17676417529582977,-0.0007187525043264031,3.1630516052246094,-0.032703205943107605,3.910064333467744e-05,2.1190658866475287e-07,-0.0014857052714928006,-0.010408968241466605
759,13448803728,-23.094778060913086,61.23503875732422,0.0011901473626494408,0.9999861917480976,-3.6718223350988568e-06,-0.0007275845598785779,-0.005204509617905865,3.1583104133605957,-0.03290020301938057,1.7738342421580455e-06,-0.0019045547815039754,-0.17306114733219147,-0.0005925216246396303,4.083371162414551,-0.04230216145515442,2.1934511096333154e-05,2.2989865556687527e-07,-0.0014551877600619868,-0.010409069150304784
760,13458803728,-23.06290626525879,61.23470687866211,0.0012006759643554688,0.9999862026473249,-3.587407248117718e-06,-0.0007119683688411452,-0.005204575213759516,3.1883459091186523,-0.03321561589837074,1.6117095356094069e-06,-0.001906170859001577,-0.17961104214191437,-0.0007369451923295856,3.003549575805664,-0.031541287899017334,-1.6212470654863864e-05,2.3627058765008952e-07,-0.0014239549141997021,-0.010409200227764686
761,13468803727,-23.03064727783203,61.23436737060547,0.0012108993250876665,0.9999862130418201,-3.5095036072103124e-06,-0.0006967693735256654,-0.005204635088353549,3.2274274826049805,-0.03362293541431427,1.9550323031580774e-06,-0.0017950080800801516,-0.1737135797739029,-0.0007046826649457216,3.9081573486328125,-0.04073195159435272,3.4332275390625e-05,2.3395044338772054e-07,-0.0013935565168098313,-0.010409319861954279
762,13478803727,-22.998098373413086,61.234031677246094,0.001221351558342576,0.999986223473353,-3.4233819119937474e-06,-0.0006812128138638072,-0.005204690277420487,3.2561724185943604,-0.03391971439123154,1.1253356433371664e-06,-0.0019155844347551465,-0.17830334603786469,-0.0006201508804224432,2.8744935989379883,-0.029677897691726685,-8.296966552734375e-05,2.4433414575187305e-07,-0.0013624429150256522,-0.010409430133468166
763,13488803727,-22.965173721313477,61.23368835449219,0.0012313842307776213,0.9999862331594482,-3.3456391564476005e-06,-0.0006663714243505421,-0.0052047506673368995,3.2937822341918945,-0.03431377932429314,1.077651972991589e-06,-0.0017838288331404328,-0.17076796293258667,-0.0007044506492093205,3.760981559753418,-0.03940649330615997,-4.768367034557741e-06,2.4540825398485584e-07,-0.0013327597220300898,-0.01040955080795506
764,13498803727,-22.931970596313477,61.23334503173828,0.0012415695236995816,0.9999862428608861,-3.257650202450731e-06,-0.0006511725460750659,-0.005204810531779697,3.3214848041534424,-0.03460180014371872,1.3160705520931515e-06,-0.0019125762628391385,-0.17390590906143188,-0.0006908121868036687,2.770256996154785,-0.02880208194255829,2.384185791015625e-05,2.6324890188135617e-07,-0.0013023614546773816,-0.010409670442144654
765,13508803726,-22.89840316772461,61.23299026489258,0.0012511825188994408,0.9999862518328578,-3.182194924840674e-06,-0.0006366888163516486,-0.005204878720694916,3.357853651046753,-0.03498255833983421,6.647109785262728e-06,-0.001721006236039102,-0.1651964634656906,-0.0007482947548851371,3.6368846893310547,-0.03807581961154938,0.0005331038846634328,2.6347400649596213e-07,-0.00127339359611329,-0.010409806721091059
766,13518803726,-22.864566802978516,61.23263931274414,0.001261215191334486,0.9999862606294293,-3.1070304455153826e-06,-0.0006221454621459768,-0.005204947429240194,3.3847193717956543,-0.035263411700725555,5.311965651344508e-06,-0.0017359371995553374,-0.1672920286655426,-0.0008026206633076072,2.6865720748901367,-0.028085336089134216,-0.00013351441884879023,2.6249353708404704e-07,-0.0012443064934710931,-0.010409944040334768
767,13528803726,-22.83037757873535,61.23228454589844,0.0012703322572633624,0.9999862687460681,-3.0355470283671256e-06,-0.000608376990454008,-0.00520501561376353,3.420034170150757,-0.03563090041279793,5.178451374376891e-06,-0.001642051967792213,-0.157887265086174,-0.0007566017447970808,3.531479835510254,-0.036748871207237244,-1.3351427696761675e-05,2.6221296984173967e-07,-0.0012167691737327811,-0.010410080319281173
768,13538803726,-22.795927047729492,61.23192596435547,0.0012797164963558316,0.9999862768011281,-2.9627983415623994e-06,-0.0005944296567234614,-0.0052050796365461,3.446232318878174,-0.03590335696935654,4.5490264710679185e-06,-0.0016607493162155151,-0.15931691229343414,-0.0007451986894011497,2.619814872741699,-0.0272456556558609,-6.294249033089727e-05,2.6259222373442467e-07,-0.0011888741217601524,-0.010410208275849172
769,13548803726,-22.761133193969727,61.2315673828125,0.0012884902535006404,0.99998628411028,-2.890724503723206e-06,-0.0005814360896932258,-0.005205143132678397,3.4806528091430664,-0.03626200184226036,3.881454176735133e-06,-0.0016064750961959362,-0.14938223361968994,-0.0007345834746956825,3.442049026489258,-0.035864487290382385,-6.675723125226796e-05,2.7154661259367863e-07,-0.0011628865849257254,-0.010410335192119872
770,13558803725,-22.726078033447266,61.231201171875,0.0012973403790965676,0.9999862912669095,-2.823722268418346e-06,-0.0005683232504933268,-0.005205216514340402,3.50632381439209,-0.0365312360227108,2.9945372261863668e-06,-0.0015508640790358186,-0.15030059218406677,-0.0008142186561599374,2.5671005249023438,-0.026923418045043945,-8.869169687386602e-05,2.6912419422991294e-07,-0.001136660559935087,-0.010410481874039286
771,13568803725,-22.69068717956543,61.23082733154297,0.0013056182069703937,0.999986297806267,-2.761844803663417e-06,-0.0005561044019846001,-0.005205280009948865,3.5399794578552246,-0.036880671977996826,2.3937225250847405e-06,-0.00143957301042974,-0.14013592898845673,-0.0007402888149954379,3.3655643463134766,-0.0349435955286026,-6.008147101965733e-05,2.657444978964393e-07,-0.0011122225459302198,-0.010410608790309986
772,13578803725,-22.655046463012695,61.2304573059082,0.0013138961512595415,0.9999863043396224,-2.696498143170301e-06,-0.0005437664558121119,-0.005205328419444252,3.56524395942688,-0.03713938593864441,1.2493132999225054e-06,-0.001479617552831769,-0.14085477590560913,-0.0005627851351164281,2.5264501571655273,-0.0258713960647583,-0.00011444092524470761,2.680437047787459e-07,-0.0010875463038434667,-0.010410705537958961
773,13588803725,-22.61907386779785,61.23008346557617,0.0013215637300163507,0.9999863101736632,-2.6356990695317863e-06,-0.0005324417165306077,-0.005205378385271641,3.5982446670532227,-0.03748377785086632,2.317428425158141e-06,-0.0013814920093864202,-0.13062793016433716,-0.000570799398701638,3.3000707626342773,-0.03443919122219086,0.00010681150888558477,2.7179538486080403e-07,-0.0010648964958801142,-0.01041080540649984
774,13598803724,-22.58285140991211,61.229705810546875,0.0013292693765833974,0.9999863159617502,-2.5785982171195015e-06,-0.0005209381869431175,-0.0052054304339614835,3.6232075691223145,-0.03774399310350418,1.802444444365392e-06,-0.0013341462472453713,-0.1311759054660797,-0.0005991093348711729,2.4962902069091797,-0.026021525263786316,-5.149839853402227e-05,2.6628926661998933e-07,-0.001041889150738189,-0.01041090943622992
775,13608803724,-22.546302795410156,61.22932434082031,0.0013363647740334272,0.9999863211718552,-2.525295308073945e-06,-0.0005103882778434441,-0.0052054746765285344,3.6556472778320312,-0.03808014467358589,8.964538551481382e-07,-0.0012413434451445937,-0.12098243832588196,-0.0005005703424103558,3.2439708709716797,-0.03361515700817108,-9.059906005859375e-05,2.6310511811440737e-07,-0.0010207890606601404,-0.010410997861500489
776,13618803724,-22.509506225585938,61.228939056396484,0.0013434982392936945,0.9999863263031432,-2.466749272882583e-06,-0.0004997788381603446,-0.005205518396039331,3.6804027557373047,-0.03833719342947006,6.00814814788464e-07,-0.0013029295951128006,-0.121468186378479,-0.0004827437223866582,2.4755477905273438,-0.025704875588417053,-2.956390380859375e-05,2.6978492016449865e-07,-0.0009995698565411486,-0.010411085246473759
777,13628803724,-22.472389221191406,61.228553771972656,0.0013500213390216231,0.9999863309301651,-2.411945207685802e-06,-0.0004900634289492497,-0.0052055532697826735,3.7123684883117676,-0.03866889327764511,1.1539458455445128e-06,-0.0012094670673832297,-0.11149252206087112,-0.0004147760628256947,3.196573257446289,-0.03316998481750488,5.5313103075604886e-05,2.78278226325744e-07,-0.0009801387284265092,-0.010411154946392913
778,13638803724,-22.435028076171875,61.2281608581543,0.0013566588750109076,0.9999863354589125,-2.3616212237675478e-06,-0.0004802884060409915,-0.005205594387273179,3.7370121479034424,-0.038926027715206146,1.9550323031580774e-06,-0.0011595922987908125,-0.11197222024202347,-0.00045064452569931746,2.4643659591674805,-0.025713443756103516,8.0108642578125e-05,2.7719548281243217e-07,-0.0009605884212523455,-0.010411237129879677
779,13648803723,-22.397350311279297,61.2277717590332,0.0013626479776576161,0.9999863395668283,-2.3175277026567954e-06,-0.00047134781033738394,-0.005205622499449112,3.768580436706543,-0.03925248607993126,1.1920928955078125e-06,-0.0010355785489082336,-0.10214360058307648,-0.0003350773476995528,3.1568288803100586,-0.03264583647251129,-7.629393803654239e-05,2.7232556567512174e-07,-0.0009427070110230097,-0.01041129330593392
780,13658803723,-22.35942840576172,61.22737503051758,0.001368675148114562,0.9999863435514922,-2.270184309394183e-06,-0.00046240723151503026,-0.00520565893192604,3.7930734157562256,-0.039509277790784836,9.72747784544481e-07,-0.001080462709069252,-0.1028733178973198,-0.0004269065393600613,2.4492979049682617,-0.025679171085357666,-2.1934511096333154e-05,2.739621735289477e-07,-0.0009248256007936739,-0.010411366126744977
781,13668803723,-22.321191787719727,61.22697448730469,0.0013741683214902878,0.9999863471261936,-2.227388555551723e-06,-0.0004542415308530933,-0.005205691201166345,3.8241708278656006,-0.03983207792043686,6.294250169958104e-07,-0.0009763652342371643,-0.0934428721666336,-0.00036186259239912033,3.1097412109375,-0.03228001296520233,-3.4332275390625e-05,2.745661034469577e-07,-0.0009084939734682231,-0.010411430625177628
782,13678803723,-22.28271484375,61.2265739440918,0.0013796996790915728,0.9999863507144789,-2.182986064891704e-06,-0.00044595659284249803,-0.005205718268504022,3.848353147506714,-0.040082383900880814,2.193450825416221e-07,-0.001000658725388348,-0.09469316899776459,-0.0003092337865382433,2.418231964111328,-0.025030598044395447,-4.100799196748994e-05,2.771363374916493e-07,-0.0008919238579865612,-0.010411484720637269
783,13688803722,-22.243932723999023,61.22616958618164,0.001384735107421875,0.9999863538766695,-2.1429724750037725e-06,-0.00043850612416231337,-0.005205743773081519,3.878929376602173,-0.040400829166173935,6.771087441848067e-07,-0.0009071770473383367,-0.0857653096318245,-0.00029679693398065865,3.0576229095458984,-0.031844526529312134,4.57763671875e-05,2.7961469469342864e-07,-0.0008770227044683085,-0.01041153569520501
784,13698803722,-22.20490837097168,61.225765228271484,0.0013898467877879739,0.9999863570374369,-2.1020712094613325e-06,-0.0004309364469057791,-0.005205768757416562,3.902926206588745,-0.040650323033332825,1.4305113893442467e-07,-0.000923976069316268,-0.08708496391773224,-0.00029229564825072885,2.3996829986572266,-0.024949386715888977,-5.340576171875e-05,2.8262602647669095e-07,-0.0008618831278124259,-0.010411585629475448
785,13708803722,-22.165584564208984,61.2253532409668,0.00139446253888309,0.9999863598387374,-2.065474645561239e-06,-0.00042402240341487895,-0.005205798421587821,3.933037042617798,-0.04096512123942375,2.8610228852699038e-08,-0.000826800474897027,-0.07873084396123886,-0.0003300952084828168,3.0110836029052734,-0.03147982060909271,-1.1444090887380298e-05,2.8385747459684493e-07,-0.0008480548459042172,-0.010411644926421595
786,13718803722,-22.126022338867188,61.224945068359375,0.0013991546584293246,0.9999863626495815,-2.027575335807225e-06,-0.0004170487763527585,-0.005205821843545411,3.9569051265716553,-0.0412120558321476,1.0204314548900584e-06,-0.0008526704041287303,-0.08012593537569046,-0.0002717046008910984,2.386808395385742,-0.024693459272384644,9.918212890625e-05,2.870679892800491e-07,-0.0008341073849364841,-0.010411691739800132
