frame,timestamp,acc x (m/s^2),acc y (m/s^2),acc z (m/s^2),gyro x (rad/s),gyro y (rad/s),gyro z (rad/s),x (Ground truth),y (Ground truth),z (Ground truth),yaw (Ground Truth),pitch (Ground Truth),roll (Ground Truth)
972,34.1106633550007,0,0,9.8100004196167,0,0,0,-23.8005466461182,61.2423858642578,0.001868057181127,-0.596735239028931,0,0
973,34.1206633547772,0,0,9.8100004196167,0,0,0,-23.8005466461182,61.2423858642578,0.001868057181127,-0.596735239028931,0,0
974,34.1306633545537,0,0,9.8100004196167,0,0,0,-23.8005466461182,61.2423858642578,0.001868057181127,-0.596735239028931,0,0
975,34.1406633543302,0,0,9.8100004196167,0,0,0,-23.8005466461182,61.2423858642578,0.001868057181127,-0.596735239028931,0,0
976,34.1506633541067,0,0,9.8100004196167,0,0,0,-23.8005466461182,61.2423858642578,0.001868057181127,-0.596735239028931,0,0
977,34.1606633538831,0,0,9.8100004196167,0,0,0,-23.8005466461182,61.2423858642578,0.001868057181127,-0.596735239028931,0,0
978,34.1706633536596,0,0,9.8100004196167,0,0,0,-23.8005466461182,61.2423858642578,0.001868057181127,-0.596735239028931,0,0
979,34.1806633534361,0,0,9.8100004196167,0,0,0,-23.8005466461182,61.2423858642578,0.001868057181127,-0.596735239028931,0,0
980,34.1906633532126,0,0,9.8100004196167,0,0,0,-23.8005466461182,61.2423858642578,0.001868057181127,-0.596735239028931,0,0
981,34.2006633529891,0,0,9.8100004196167,0,0,0,-23.8005466461182,61.2423858642578,0.001868057181127,-0.596735239028931,0,0
982,34.2106633527656,0,0,9.8100004196167,0,0,0,-23.8005466461182,61.2423858642578,0.001868057181127,-0.596735239028931,0,0
983,34.220663352542,0,0,9.8100004196167,0,0,0,-23.8005466461182,61.2423858642578,0.001868057181127,-0.596735239028931,0,0
984,34.2306633523185,0,0,9.8100004196167,0,0,0,-23.8005466461182,61.2423858642578,0.001868057181127,-0.596735239028931,0,0
985,34.240663352095,0,0,9.8100004196167,0,0,0,-23.8005466461182,61.2423858642578,0.001868057181127,-0.596735239028931,0,0
986,34.2506633518715,0,0,9.8100004196167,0,0,0,-23.8005466461182,61.2423858642578,0.001868057181127,-0.596735239028931,0,0
987,34.260663351648,0,0,9.8100004196167,0,0,0,-23.8005466461182,61.2423858642578,0.001868057181127,-0.596735239028931,0,0
988,34.2706633514244,0,0,9.8100004196167,0,0,0,-23.8005466461182,61.2423858642578,0.001868057181127,-0.596735239028931,0,0
989,34.2806633512009,0,0,9.8100004196167,0,0,0,-23.8005466461182,61.2423858642578,0.001868057181127,-0.596735239028931,0,0
990,34.2906633509774,0,0,9.8100004196167,0,0,0,-23.8005466461182,61.2423858642578,0.001868057181127,-0.596735239028931,0,0
991,34.3006633507539,0,0,9.8100004196167,0,0,0,-23.8005466461182,61.2423858642578,0.001868057181127,-0.596735239028931,0,0
992,34.3106633505304,0,0,9.8100004196167,0,0,0,-23.8005466461182,61.2423858642578,0.001868057181127,-0.596735239028931,0,0
993,34.3206633503069,0,0,9.8100004196167,0,0,0,-23.8005466461182,61.2423858642578,0.001868057181127,-0.596735239028931,0,0
994,34.3306633500833,0,0,9.8100004196167,0,0,0,-23.8005466461182,61.2423858642578,0.001868057181127,-0.596735239028931,0,0
995,34.3406633498598,0,0,9.8100004196167,0,0,0,-23.8005466461182,61.2423858642578,0.001868057181127,-0.596735239028931,0,0
996,34.3506633496363,0,0,9.8100004196167,0,0,0,-23.8005466461182,61.2423858642578,0.001868057181127,-0.596735239028931,0,0
997,34.3606633494128,0,0,9.8100004196167,0,0,0,-23.8005466461182,61.2423858642578,0.001868057181127,-0.596735239028931,0,0
998,34.3706633491893,0,0,9.8100004196167,0,0,0,-23.8005466461182,61.2423858642578,0.001868057181127,-0.596735239028931,0,0
999,34.3806633489658,0,0,9.18782424926758,8.29694556614413E-07,-3.47604867556583E-07,9.90720838700554E-11,-23.8005466461182,61.2423858642578,0.001805839478038,-0.596735239028931,0,0
1000,34.3906633487422,0,0,9.90536689758301,8.51490426612145E-07,-3.52850406670768E-07,-8.77187211756336E-13,-23.8005466461182,61.2423858642578,0.001753158518113,-0.596735239028931,0,0
1001,34.4006633485187,0,0,9.89392375946045,1.79934886546107E-07,3.77395981132622E-09,7.44012906839231E-11,-23.8005466461182,61.2423858642578,0.001708869938739,-0.596735239028931,0,0
1002,34.4106633482952,0,0,9.88286304473877,8.53720337090635E-07,3.54077201336622E-07,3.64524105345154E-11,-23.8005466461182,61.2423858642578,0.001671867328696,-0.596735239028931,0,0
1003,34.4206633480717,0,0,9.87294101715088,-3.79171751774265E-08,1.04604014339316E-08,-2.07875314184314E-11,-23.8005466461182,61.2423858642578,0.001641159062274,-0.596735239028931,0,0
1004,34.4306633478482,0,0,9.86531448364258,8.4029557001486E-07,-3.38189948934087E-07,1.03400621398464E-12,-23.8005466461182,61.2423858642578,0.001615982037038,-0.596735239028931,0,0
1005,34.4406633476247,0,0,9.85768508911133,-4.93101417475828E-08,1.65640123839239E-08,-3.35925731675957E-13,-23.8005466461182,61.2423858642578,0.001595573383383,-0.596735239028931,0,0
1006,34.4506633474011,0,0,9.85119819641113,-7.60861311732697E-08,2.60745007807373E-08,4.53753354334729E-12,-23.8005466461182,61.2423858642578,0.001579284667969,-0.596735239028931,0,0
1007,34.4606633471776,0,0,9.84585952758789,-1.00812762582336E-07,3.27251541420992E-08,5.81089690254721E-12,-23.8005466461182,61.2423858642578,0.001566581660882,-0.596735239028931,0,0
1008,34.4706633469541,0,0,9.84051704406738,-1.25345763990481E-07,4.17318268830513E-08,6.0766391918321E-12,-23.8005466461182,61.2423858642578,0.001556930481456,-0.596735239028931,0,0
1009,34.4806633467306,0,0,9.83594036102295,7.65390169021885E-08,4.83376005888658E-08,7.33581251299853E-12,-23.8005466461182,61.2423858642578,0.001549873268232,-0.596735239028931,0,0
1010,34.4906633465071,0,0,9.83212661743164,-1.76405080765107E-07,5.73932510405939E-08,-9.60207607869634E-12,-23.8005466461182,61.2423858642578,0.001545028644614,-0.596735239028931,0,0
1011,34.5006633462835,0,0,9.82869148254395,-2.13182872244033E-07,6.12372232922098E-08,4.19541901219844E-11,-23.8005466461182,61.2423858642578,0.001542053185403,-0.596735239028931,0,0
1012,34.51066334606,0,0,9.82602214813232,-2.26862766794511E-07,7.06973679598377E-08,5.52710099910314E-11,-23.8005466461182,61.2423858642578,0.001540679950267,-0.596735239028931,0,0
1013,34.5206633458365,0,0,9.82373332977295,-2.79911738232386E-08,7.40068983873243E-08,3.00469024661076E-12,-23.8005466461182,61.2423858642578,0.001540679950267,-0.596735239028931,0,0
1014,34.530663345613,0,0,9.8203010559082,6.26166524853034E-07,-2.69862255208864E-07,-4.22714988013162E-11,-23.8005466461182,61.2423858642578,0.001541709876619,-0.596735239028931,0,0
1015,34.5406633453895,0,0,9.81953620910645,-2.9025326853116E-07,8.68279528276617E-08,1.11553405401921E-11,-23.8005466461182,61.2423858642578,0.001543693477288,-0.596735239028931,0,0
1016,34.550663345166,0,0,9.81724739074707,5.75246872358548E-07,-2.56556432987054E-07,-3.43215941778219E-11,-23.8005466461182,61.2423858642578,0.001546401996166,-0.596735239028931,0,0
1017,34.5606633449424,0,0,9.8161039352417,-1.1710329061998E-07,9.72650937569597E-08,2.41979561388383E-11,-23.8005466461182,61.2423858642578,0.00154972076416,-0.596735239028931,0,0
1018,34.5706633447189,0,0,9.81457901000977,-1.42190657470564E-07,1.05357955249019E-07,-3.05763574182105E-12,-23.8005466461182,61.2423858642578,0.0015534972772,-0.596735239028931,0,0
1019,34.5806633444954,0,0,9.81343269348145,-3.89839414083326E-07,1.14404670625845E-07,-1.30580130042191E-11,-23.8005466461182,61.2423858642578,0.001557617099024,-0.596735239028931,0,0
1020,34.5906633442719,0,0,9.81267166137695,-4.2291063095945E-07,1.16355252544054E-07,3.99219823865593E-11,-23.8005466461182,61.2423858642578,0.001562004094012,-0.596735239028931,0,0
1021,34.6006633440484,0,0,9.8119068145752,-4.27999907515186E-07,1.23914503546985E-07,-1.43038358935144E-11,-23.8005466461182,61.2423858642578,0.001566581660882,-0.596735239028931,0,0
1022,34.6106633438249,0,0,9.81114387512207,4.22863109861282E-07,-2.25600288672467E-07,1.50616741301235E-11,-23.8005466461182,61.2423858642578,0.001571273780428,-0.596735239028931,0,0
1023,34.6206633436013,0,0,9.81038284301758,-4.8545729214311E-07,1.23061937529201E-07,4.7032849836981E-11,-23.8005466461182,61.2423858642578,0.001576003967784,-0.596735239028931,0,0
1024,34.6306633433778,0,0,9.81038284301758,-4.95839742598037E-07,1.25000653383722E-07,2.68829680738492E-11,-23.8005466461182,61.2423858642578,0.001580772339366,-0.596735239028931,0,0
1025,34.6406633431543,0,0,9.80961799621582,-5.13717907324462E-07,1.26926906318658E-07,3.11962400356691E-11,-23.8005466461182,61.2423858642578,0.001585502643138,-0.596735239028931,0,0
1026,34.6506633429308,0,0,9.80961799621582,-5.3025723900646E-07,1.23662616147158E-07,2.61217159014393E-11,-23.8005466461182,61.2423858642578,0.001590194646269,-0.596735239028931,0,0
1027,34.6606633427073,0,0,9.80885696411133,1.24530299672188E-06,-5.80692983476183E-07,-3.06884240242056E-11,-23.8005466461182,61.2423858642578,0.001594772329554,-0.596735239028931,0,0
1028,34.6706633424837,0,0,9.80885696411133,-5.36374443527166E-07,1.19390264785579E-07,1.33077993069719E-11,-23.8005466461182,61.2423858642578,0.001599235460162,-0.596735239028931,0,0
1029,34.6806633422602,0,0,9.80885410308838,-5.51036578144704E-07,1.27493834156667E-07,-1.24627808073541E-11,-23.8005466461182,61.2423858642578,0.001603584270924,-0.596735239028931,0,0
1030,34.6906633420367,0,0,9.80885791778564,3.15021992491893E-07,-2.3100338353288E-07,1.67601488243463E-11,-23.8005466461182,61.2423858642578,0.00160781852901,-0.596735239028931,0,0
1031,34.7006633418132,0,0,9.80809211730957,-5.583158895206E-07,1.19936544251686E-07,4.03214441002664E-11,-23.8005466461182,61.2423858642578,0.001611862098798,-0.596735239028931,0,0
1032,34.7106633415897,0,0,9.8088550567627,9.52953087107744E-07,1.29208260091218E-07,-1.55633506082609E-10,-23.8005466461182,61.2423858642578,0.001615791232325,-0.596735239028931,0,0
1033,34.7206633413662,0,0,9.80809497833252,3.01285581372213E-07,-2.22032127794591E-07,6.42704778286429E-11,-23.8005466461182,61.2423858642578,0.001619529677555,-0.596735239028931,0,0
1034,34.7306633411426,0,0,9.8084716796875,2.93853958055479E-07,-2.23460816073384E-07,-1.5557360955043E-11,-23.8005466461182,61.2423858642578,0.001623115502298,-0.596735239028931,0,0
1035,34.7406633409191,0,0,9.8084774017334,2.98753690231024E-07,4.74484949108955E-07,6.99104593659961E-11,-23.8005466461182,61.2423858642578,0.001626548706554,-0.596735239028931,0,0
1036,34.7506633406956,0,0,9.8084716796875,-5.97207417740719E-07,1.30913335283367E-07,2.51557663588642E-11,-23.8005466461182,61.2423858642578,0.001629829406738,-0.596735239028931,0,0
1037,34.7606633404721,0,0,9.80809497833252,-6.15956651017768E-07,1.34217714276019E-07,-4.21306878273242E-11,-23.8005466461182,61.2423858642578,0.00163291930221,-0.596735239028931,0,0
1038,34.7706633402486,0,0,9.80847454071045,1.14151714569744E-06,-5.70124768728419E-07,-2.07357908621475E-10,-23.8005466461182,61.2423858642578,0.001635856577195,-0.596735239028931,0,0
1039,34.7806633400251,0,0,9.80847358703613,-6.12502901731205E-07,1.27571155417172E-07,2.72669997691821E-10,-23.8005466461182,61.2423858642578,0.001638641348109,-0.596735239028931,0,0
1040,34.7906633398015,0,0,9.78215408325195,0,0,0,-23.8005466461182,61.2423858642578,0.001638641348109,-0.596735239028931,0,0
1041,34.800663339578,0,0,9.8100004196167,-8.76121021065046E-07,3.46277204243961E-07,9.68289615155271E-11,-23.8005466461182,61.2423858642578,0.001638641348109,-0.596735239028931,0,0
1042,34.8106633393545,0,0,9.82487869262695,1.57143382750746E-08,-1.64985785033878E-08,-1.39910333318838E-10,-23.8005466461182,61.2423858642578,0.001640129019506,-0.596735239028931,0,0
1043,34.820663339131,0,0,9.80542182922363,3.65825947312715E-08,-3.11689767329426E-08,2.70992672746218E-11,-23.8005466461182,61.2423858642578,0.001641159062274,-0.596735239028931,0,0
1044,34.8306633389075,0,0,9.8111457824707,-8.43300540509517E-07,3.14174343429841E-07,1.06889330719895E-10,-23.8005466461182,61.2423858642578,0.001642303424887,-0.596735239028931,0,0
1045,34.840663338684,0,0,9.81114387512207,-8.39941151298262E-07,3.06652310655409E-07,-3.94657362345896E-11,-23.8005466461182,61.2423858642578,0.001643562223762,-0.596735239028931,0,0
1046,34.8506633384604,0,0,9.81076431274414,6.36438812762208E-08,-5.89983990550991E-08,-1.11178899420139E-10,-23.8005466461182,61.2423858642578,0.001644897391088,-0.596735239028931,0,0
1047,34.8606633382369,0,0,9.81038093566895,9.89639488579996E-07,-4.28489329351578E-07,-6.32028457348E-11,-23.8005466461182,61.2423858642578,0.00164627074264,-0.596735239028931,0,0
1048,34.8706633380134,0,0,9.81038093566895,-7.33237072836346E-07,2.67272838527788E-07,2.45358983130828E-10,-23.8005466461182,61.2423858642578,0.001647682162002,-0.596735239028931,0,0
1049,34.8806633377899,0,0,9.81000137329102,1.36718597332219E-07,-8.60112479017516E-08,-1.62752700205715E-10,-23.8005466461182,61.2423858642578,0.001649093581364,-0.596735239028931,0,0
1050,34.8906633375664,0,0,9.8100004196167,1.68978715464618E-06,-9.52439975776542E-08,-8.49698089666617E-11,-23.8005466461182,61.2423858642578,0.001650505000725,-0.596735239028931,0,0
1051,34.9006633373428,0,0,9.80999946594238,1.81268802634804E-07,-1.0307684306099E-07,1.8197418572008E-10,-23.8005466461182,61.2423858642578,0.001651916420087,-0.596735239028931,0,0
1052,34.9106633371193,0,0,9.80961990356445,-7.01608769304585E-07,2.41320464056116E-07,4.62431898329285E-11,-23.8005466461182,61.2423858642578,0.001653289771639,-0.596735239028931,0,0
1053,34.9206633368958,0,0,9.8100004196167,1.82146109750647E-07,-1.16729630406098E-07,-1.54054824452743E-10,-23.8005466461182,61.2423858642578,0.001654663006775,-0.596735239028931,0,0
1054,34.9306633366723,0,0,9.80961990356445,2.06053286433416E-07,-1.3187798231229E-07,2.35166330853076E-11,-23.8005466461182,61.2423858642578,0.001655998174101,-0.596735239028931,0,0
1055,34.9406633364488,0,0,9.80923652648926,2.14856669344954E-07,-1.38492126211531E-07,8.13799375110058E-12,-23.8005466461182,61.2423858642578,0.001657257089391,-0.596735239028931,0,0
1056,34.9506633362253,0,0,9.8100004196167,2.20947327989052E-07,-1.47925504734303E-07,8.8845684281802E-13,-23.8005466461182,61.2423858642578,0.001658515888266,-0.596735239028931,0,0
1057,34.9606633360017,0,0,9.80923843383789,-6.57337807297154E-07,1.96943076957723E-07,9.75147393389442E-11,-23.8005466461182,61.2423858642578,0.001659698435105,-0.596735239028931,0,0
1058,34.9706633357782,0,0,9.80961799621582,-6.67665005948948E-07,1.95574656913777E-07,-3.96439270300419E-11,-23.8005466461182,61.2423858642578,0.001660842914134,-0.596735239028931,0,0
1059,34.9806633355547,0,0,9.80961990356445,1.96927899764887E-07,-1.55857620143252E-07,-1.07918216030178E-10,-23.8005466461182,61.2423858642578,0.001661949092522,-0.596735239028931,0,0
1060,34.9906633353312,0,0,9.80961799621582,2.0881397233552E-07,-1.63912829975743E-07,3.5826230870839E-11,-23.8005466461182,61.2423858642578,0.0016630172031,-0.596735239028931,0,0
1061,35.0006633351077,0,0,9.79931926727295,-6.74316197546432E-07,1.80496741108982E-07,1.07946311611595E-10,-23.8005466461182,61.2423858642578,0.0016630172031,-0.596735239028931,0,0
1062,35.0106633348842,0,0,9.82945442199707,1.93536550341378E-07,-1.69979230690842E-07,-1.35200073358988E-10,-23.8005466461182,61.2423858642578,0.001664962735958,-0.596735239028931,0,0
1063,35.0206633346606,0,0,9.79054641723633,1.73880584952713E-06,-1.72129091424722E-07,-7.55397550067372E-11,-23.8005466461182,61.2423858642578,0.001664962735958,-0.596735239028931,0,0
1064,35.0306633344371,0,0,9.82792854309082,-6.8566708932849E-07,1.83361706262986E-07,2.84590462307222E-10,-23.8005466461182,61.2423858642578,0.00166675564833,-0.596735239028931,0,0
1065,35.0406633342136,0,0,9.79207229614258,1.87871037837795E-07,-1.72789214047953E-07,-1.90449628290068E-10,-23.8005466461182,61.2423858642578,0.00166675564833,-0.596735239028931,0,0
1066,35.0506633339901,0,0,9.82564163208008,1.7552797260123E-07,-1.69488970414022E-07,1.51078316523723E-11,-23.8005466461182,61.2423858642578,0.001668319688179,-0.596735239028931,0,0
1067,35.0606633337666,0,0,9.79435920715332,8.32313503451587E-07,1.79869687144674E-07,-1.38175755559633E-12,-23.8005466461182,61.2423858642578,0.001668319688179,-0.596735239028931,0,0
1068,35.070663333543,0,0,9.82411575317383,-6.9321566797953E-07,1.7445218247758E-07,1.36148953222559E-10,-23.8005466461182,61.2423858642578,0.00166973110754,-0.596735239028931,0,0
1069,35.0806633333195,0,0,9.79588508605957,1.54252575157443E-07,-1.69887968581861E-07,-1.58623059132168E-10,-23.8005466461182,61.2423858642578,0.00166973110754,-0.596735239028931,0,0
1070,35.090663333096,0,0,9.82258796691895,1.52672555486788E-07,-1.72733606973452E-07,2.12976858371405E-11,-23.8005466461182,61.2423858642578,0.001670989906415,-0.596735239028931,0,0
1071,35.1006633328725,0,0,9.79741287231445,1.49673624605384E-07,-1.76494282300155E-07,6.87680728334028E-12,-23.8005466461182,61.2423858642578,0.001670989906415,-0.596735239028931,0,0
1072,35.110663332649,0,0,9.8210620880127,-7.42189229185897E-07,1.75470304952796E-07,9.97567237148722E-11,-23.8005466461182,61.2423858642578,0.001672096201219,-0.596735239028931,0,0
1073,35.1206633324255,0,0,9.7989387512207,-7.63031493988819E-07,1.7930702256308E-07,-3.89310250703545E-11,-23.8005466461182,61.2423858642578,0.001672096201219,-0.596735239028931,0,0
1074,35.1306633322019,0,0,9.8100004196167,1.28436369095652E-07,-1.68418821999694E-07,-1.09976458495531E-10,-23.8005466461182,61.2423858642578,0.001672096201219,-0.596735239028931,0,0
1075,35.1406633319784,0,0,9.82449722290039,1.37868767069449E-07,-1.62810124493262E-07,3.86034537669389E-11,-23.8005466461182,61.2423858642578,0.001673545804806,-0.596735239028931,0,0
1076,35.1506633317549,0,0,9.79550361633301,1.17265699373093E-07,-1.58052074539228E-07,1.29936339465786E-11,-23.8005466461182,61.2423858642578,0.001673545804806,-0.596735239028931,0,0
1077,35.1606633315314,0,0,9.8100004196167,-7.90520687132812E-07,1.97717284322607E-07,1.01174714439711E-10,-23.8005466461182,61.2423858642578,0.001673545804806,-0.596735239028931,0,0
1078,35.1706633313079,0,0,9.82182502746582,7.68322308886127E-07,2.05940935416038E-07,-1.46214401697264E-10,-23.8005466461182,61.2423858642578,0.001674728351645,-0.596735239028931,0,0
1079,35.1806633310844,0,0,9.79817581176758,1.03340859425316E-07,-1.38674920435733E-07,7.03871128049371E-11,-23.8005466461182,61.2423858642578,0.001674728351645,-0.596735239028931,0,0
1080,35.1906633308608,0,0,9.8100004196167,-8.07494643595419E-07,2.18010569597027E-07,8.47419912020087E-11,-23.8005466461182,61.2423858642578,0.001674728351645,-0.596735239028931,0,0
1081,35.2006633306373,0,0,9.8100004196167,7.14268992396683E-07,2.17840451455231E-07,-1.49895290624258E-10,-23.8005466461182,61.2423858642578,0.001674728351645,-0.596735239028931,0,0
1082,35.2106633304138,0,0,9.8100004196167,0,0,0,-23.8005466461182,61.2423858642578,0.001674728351645,-0.596735239028931,0,0
1083,35.2206633301903,0,0,9.82029914855957,6.99989843866433E-09,-1.03771000681263E-08,-1.59845997115687E-12,-23.8005466461182,61.2423858642578,0.001675758277997,-0.596735239028931,0,0
1084,35.2306633299668,0,0,9.79970169067383,-1.55202684037903E-09,-1.08292592670978E-08,8.22774899426892E-13,-23.8005466461182,61.2423858642578,0.001675758277997,-0.596735239028931,0,0
1085,35.2406633297433,0,0,9.8100004196167,5.5484647987214E-09,-1.83809731879592E-08,-1.62108889679991E-12,-23.8005466461182,61.2423858642578,0.001675758277997,-0.596735239028931,0,0
1086,35.2506633295197,0,0,9.8100004196167,8.86689406343066E-07,-3.72205590792873E-07,-9.7768279583299E-11,-23.8005466461182,61.2423858642578,0.001675758277997,-0.596735239028931,0,0
1087,35.2606633292962,0,0,9.8100004196167,1.10647393469776E-08,-2.92477668750735E-08,1.36952588158934E-10,-23.8005466461182,61.2423858642578,0.001675758277997,-0.596735239028931,0,0
1088,35.2706633290727,0,0,9.8100004196167,-8.85248368831526E-07,3.21806680858572E-07,6.93796756157106E-11,-23.8005466461182,61.2423858642578,0.001675758277997,-0.596735239028931,0,0
1089,35.2806633288492,0,0,9.8100004196167,-6.49129550112093E-09,-3.43460868634793E-08,-1.48015960599324E-10,-23.8005466461182,61.2423858642578,0.001675758277997,-0.596735239028931,0,0
1090,35.2906633286257,0,0,9.8100004196167,-8.9632004574014E-07,3.15707467279935E-07,1.25730009736813E-10,-23.8005466461182,61.2423858642578,0.001675758277997,-0.596735239028931,0,0
1091,35.3006633284021,0,0,9.8100004196167,-1.87611863822212E-08,-4.04415025911931E-08,-1.30383953633739E-10,-23.8005466461182,61.2423858642578,0.001675758277997,-0.596735239028931,0,0
1092,35.3106633281786,0,0,9.8203010559082,8.87115447767428E-07,-3.94344567666849E-07,-6.87328180482005E-11,-23.8005466461182,61.2423858642578,0.001676788320765,-0.596735239028931,0,0
1093,35.3206633279551,0,0,9.7996997833252,2.31003713935252E-08,-4.43481980028082E-08,1.47075310263922E-10,-23.8005466461182,61.2423858642578,0.001676788320765,-0.596735239028931,0,0
1094,35.3306633277316,0,0,9.8100004196167,2.00709067144089E-08,-4.14931982106737E-08,-2.62091737202041E-11,-23.8005466461182,61.2423858642578,0.001676788320765,-0.596735239028931,0,0
1095,35.3406633275081,0,0,9.8100004196167,1.41757370286655E-08,-4.3363758805981E-08,-8.20596542105978E-12,-23.8005466461182,61.2423858642578,0.001676788320765,-0.596735239028931,0,0
1096,35.3506633272846,0,0,9.8100004196167,-8.69079315179988E-07,3.1234858965945E-07,9.64007068615658E-11,-23.8005466461182,61.2423858642578,0.001676788320765,-0.596735239028931,0,0
1097,35.360663327061,0,0,9.8100004196167,8.08778111149877E-09,-4.28575894773076E-08,-1.38757560996794E-10,-23.8005466461182,61.2423858642578,0.001676788320765,-0.596735239028931,0,0
1098,35.3706633268375,0,0,9.8100004196167,1.57478586970683E-06,-4.50568755638869E-08,-7.69811298040324E-11,-23.8005466461182,61.2423858642578,0.001676788320765,-0.596735239028931,0,0
1099,35.380663326614,0,0,9.8100004196167,-8.3376141901681E-07,3.05688018897854E-07,2.84055057253596E-10,-23.8005466461182,61.2423858642578,0.001676788320765,-0.596735239028931,0,0
1100,35.3906633263905,0,0,9.8100004196167,-8.50818310027535E-07,3.04795435113192E-07,-9.06616726137344E-11,-23.8005466461182,61.2423858642578,0.001676788320765,-0.596735239028931,0,0
1101,35.400663326167,0,0,9.82068157196045,9.1528727352852E-07,-4.04277443522005E-07,-2.23112778252599E-10,-23.8005466461182,61.2423858642578,0.001677856431343,-0.596735239028931,0,0
1102,35.4106633259435,0,0,9.79931926727295,4.44299210755617E-08,-6.08817529723638E-08,1.72063266412614E-10,-23.8005466461182,61.2423858642578,0.001677856431343,-0.596735239028931,0,0
1103,35.4206633257199,0,0,9.8100004196167,4.76674024696422E-08,-6.98152220479642E-08,-2.0252841070878E-11,-23.8005466461182,61.2423858642578,0.001677856431343,-0.596735239028931,0,0
1104,35.4306633254964,0,0,9.8100004196167,4.39740510671527E-08,-7.2162585240676E-08,-6.66930920212305E-12,-23.8005466461182,61.2423858642578,0.001677856431343,-0.596735239028931,0,0
1105,35.4406633252729,0,0,9.8100004196167,-8.36651395275112E-07,2.70827854365052E-07,9.52701806333778E-11,-23.8005466461182,61.2423858642578,0.001677856431343,-0.596735239028931,0,0
1106,35.4506633250494,0,0,9.8100004196167,1.57441445480799E-06,-7.70619337231437E-08,-2.4162064016231E-10,-23.8005466461182,61.2423858642578,0.001677856431343,-0.596735239028931,0,0
1107,35.4606633248259,0,0,9.8100004196167,-8.19934371065756E-07,2.67976531631575E-07,3.01537322888734E-10,-23.8005466461182,61.2423858642578,0.001677856431343,-0.596735239028931,0,0
1108,35.4706633246024,0,0,9.8100004196167,9.21553009902709E-07,-4.37258904639748E-07,-2.786889885531E-10,-23.8005466461182,61.2423858642578,0.001677856431343,-0.596735239028931,0,0
1109,35.4806633243788,0,0,9.8100004196167,-8.22282459012058E-07,2.53346570389112E-07,2.48395970459114E-10,-23.8005466461182,61.2423858642578,0.001677856431343,-0.596735239028931,0,0
1110,35.4906633241553,0,0,9.8100004196167,9.23836239508091E-07,-4.48570233402279E-07,-2.57530136105188E-10,-23.8005466461182,61.2423858642578,0.001677856431343,-0.596735239028931,0,0
1111,35.5006633239318,0,0,9.8100004196167,-8.23932282401074E-07,2.4204626924984E-07,2.55025917050844E-10,-23.8005466461182,61.2423858642578,0.001677856431343,-0.596735239028931,0,0
1112,35.5106633237083,0,0,9.8100004196167,3.77814295404733E-08,-1.0839370645499E-07,-1.58521584747717E-10,-23.8005466461182,61.2423858642578,0.001677856431343,-0.596735239028931,0,0
1113,35.5206633234848,0,0,9.8100004196167,3.29914513486074E-08,-1.11231031496573E-07,2.1448065545826E-11,-23.8005466461182,61.2423858642578,0.001677856431343,-0.596735239028931,0,0
1114,35.5306633232613,0,0,9.8100004196167,-8.49285754611628E-07,2.32705573921521E-07,1.03912628501845E-10,-23.8005466461182,61.2423858642578,0.001677856431343,-0.596735239028931,0,0
1115,35.5406633230377,0,0,9.8100004196167,9.96052129664804E-09,-1.18221748834912E-07,-1.35367411724374E-10,-23.8005466461182,61.2423858642578,0.001677856431343,-0.596735239028931,0,0
1116,35.5506633228142,0,0,9.8203010559082,1.55079726482654E-06,-1.22716372175091E-07,-7.60199611593571E-11,-23.8005466461182,61.2423858642578,0.001678886357695,-0.596735239028931,0,0
1117,35.5606633225907,0,0,9.7996997833252,2.52926195543068E-08,-1.27684160133867E-07,1.84335630093457E-10,-23.8005466461182,61.2423858642578,0.001678886357695,-0.596735239028931,0,0
1118,35.5706633223672,0,0,9.8100004196167,-8.59933550145797E-07,2.13892874967314E-07,4.53941884082099E-11,-23.8005466461182,61.2423858642578,0.001678886357695,-0.596735239028931,0,0
1119,35.5806633221437,0,0,9.8100004196167,3.9153902342548E-09,-1.34692783149148E-07,-1.52017454180253E-10,-23.8005466461182,61.2423858642578,0.001678886357695,-0.596735239028931,0,0
1120,35.5906633219201,0,0,9.8100004196167,6.43407190636935E-07,2.18921400119143E-07,2.08447842320325E-11,-23.8005466461182,61.2423858642578,0.001678886357695,-0.596735239028931,0,0
1121,35.6006633216966,0,0,9.8100004196167,-1.21220971038838E-08,-1.332297188128E-07,4.59578070044486E-11,-23.8005466461182,61.2423858642578,0.001678886357695,-0.596735239028931,0,0
1122,35.6106633214731,0,0,9.8100004196167,-8.93981166427693E-07,2.10672553180302E-07,7.41597686038098E-11,-23.8005466461182,61.2423858642578,0.001678886357695,-0.596735239028931,0,0
1123,35.6206633212496,0,0,9.8100004196167,-3.28945120031676E-08,-1.38377018288338E-07,-1.43071748892609E-10,-23.8005466461182,61.2423858642578,0.001678886357695,-0.596735239028931,0,0
1124,35.6306633210261,0,0,9.8100004196167,0,0,0,-23.8005466461182,61.2423858642578,0.001678886357695,-0.596735239028931,0,0
1125,35.6406633208026,0,0,9.8100004196167,2.25139507037397E-09,2.34961561318414E-09,1.02268698067357E-13,-23.8005466461182,61.2423858642578,0.001678886357695,-0.596735239028931,0,0
1126,35.650663320579,0,0,9.8100004196167,4.51262405221087E-09,4.69941774383642E-09,2.17145772933927E-13,-23.8005466461182,61.2423858642578,0.001678886357695,-0.596735239028931,0,0
1127,35.6606633203555,0,0,9.8100004196167,6.77531586390501E-09,7.04921365723976E-09,2.45878567072672E-13,-23.8005466461182,61.2423858642578,0.001678886357695,-0.596735239028931,0,0
1128,35.670663320132,0,0,9.8100004196167,9.03815600139524E-09,9.39901756424888E-09,2.5129776189646E-13,-23.8005466461182,61.2423858642578,0.001678886357695,-0.596735239028931,0,0
1129,35.6806633199085,0,0,9.8100004196167,1.13010472091446E-08,1.17488188067227E-08,2.52200793885923E-13,-23.8005466461182,61.2423858642578,0.001678886357695,-0.596735239028931,0,0
1130,35.690663319685,0,0,9.8100004196167,1.35639135478982E-08,1.4098620937375E-08,2.52313496701753E-13,-23.8005466461182,61.2423858642578,0.001678886357695,-0.596735239028931,0,0
1131,35.7006633194615,0,0,9.8100004196167,1.58267763339381E-08,1.64484230680273E-08,2.5233390680765E-13,-23.8005466461182,61.2423858642578,0.001678886357695,-0.596735239028931,0,0
1132,35.7106633192379,0,0,9.8100004196167,-6.20323248767818E-07,-3.32956915372051E-07,5.33726405085866E-12,-23.8005466461182,61.2423858642578,0.001678886357695,-0.596735239028931,0,0
1133,35.7206633190144,0,0,9.8100004196167,5.48540270983722E-08,1.77371735077259E-08,-3.9117653560794E-11,-23.8005466461182,61.2423858642578,0.001678886357695,-0.596735239028931,0,0
1134,35.7306633187909,0,0,9.8100004196167,8.53747579299125E-08,2.0526520927433E-08,2.36029980282826E-11,-23.8005466461182,61.2423858642578,0.001678886357695,-0.596735239028931,0,0
1135,35.7406633185674,0,0,9.8100004196167,1.13822281377907E-07,2.32893562213121E-08,6.79644361623044E-12,-23.8005466461182,61.2423858642578,0.001678886357695,-0.596735239028931,0,0
1136,35.7506633183439,0,0,9.8100004196167,1.29397577097734E-07,3.17316164455406E-08,2.929421028669E-12,-23.8005466461182,61.2423858642578,0.001678886357695,-0.596735239028931,0,0
1137,35.7606633181204,0,0,9.8100004196167,1.4487464738977E-07,4.01743207589789E-08,1.28424864059146E-12,-23.8005466461182,61.2423858642578,0.001678886357695,-0.596735239028931,0,0
1138,35.7706633178968,0,0,9.8100004196167,-1.37666756927501E-06,4.31905462505711E-08,1.0438413328151E-10,-23.8005466461182,61.2423858642578,0.001678886357695,-0.596735239028931,0,0
1139,35.7806633176733,0,0,9.8100004196167,-1.35759239583422E-06,4.40752181418702E-08,-7.30647209401525E-11,-23.8005466461182,61.2423858642578,0.001678886357695,-0.596735239028931,0,0
1140,35.7906633174498,0,0,9.8100004196167,-4.44891242068479E-07,3.98025264303214E-07,-4.1345850354535E-11,-23.8005466461182,61.2423858642578,0.001678886357695,-0.596735239028931,0,0
1141,35.8006633172263,0,0,9.8100004196167,-4.15398091035968E-07,-3.04202075085413E-07,-3.680591248445E-11,-23.8005466461182,61.2423858642578,0.001678886357695,-0.596735239028931,0,0
1142,35.8106633170028,0,0,9.8100004196167,-3.62225534900062E-07,-3.02967094967244E-07,6.16193207569893E-12,-23.8005466461182,61.2423858642578,0.001678886357695,-0.596735239028931,0,0
1143,35.8206633167792,0,0,9.8100004196167,1.20373010759067E-06,-3.03259099609932E-07,-1.0120915910905E-10,-23.8005466461182,61.2423858642578,0.001678886357695,-0.596735239028931,0,0
1144,35.8306633165557,0,0,9.8100004196167,1.2417078778526E-06,-3.02389906892131E-07,7.28152121931558E-11,-23.8005466461182,61.2423858642578,0.001678886357695,-0.596735239028931,0,0
1145,35.8406633163322,0,0,9.8100004196167,3.86314070510707E-07,5.09073281307337E-08,1.17619608497321E-10,-23.8005466461182,61.2423858642578,0.001678886357695,-0.596735239028931,0,0
1146,35.8506633161087,0,0,9.8100004196167,3.98086143604814E-07,5.89088209324018E-08,-3.50162537854359E-11,-23.8005466461182,61.2423858642578,0.001678886357695,-0.596735239028931,0,0
1147,35.8606633158852,0,0,9.8100004196167,4.14065397080776E-07,6.6878634186196E-08,-9.49630131474866E-12,-23.8005466461182,61.2423858642578,0.001678886357695,-0.596735239028931,0,0
1148,35.8706633156617,0,0,9.8100004196167,4.30502069548311E-07,7.484789676937E-08,-1.19751084048936E-12,-23.8005466461182,61.2423858642578,0.001678886357695,-0.596735239028931,0,0
1149,35.8806633154381,0,0,9.8100004196167,4.47004680381724E-07,8.28171948796808E-08,4.63173770171021E-13,-23.8005466461182,61.2423858642578,0.001678886357695,-0.596735239028931,0,0
1150,35.8906633152146,0,0,9.8100004196167,4.63516727222668E-07,9.07864929899915E-08,7.51563308115655E-13,-23.8005466461182,61.2423858642578,0.001678886357695,-0.596735239028931,0,0
1151,35.9006633149911,0,0,9.8100004196167,-1.81990813530319E-07,-2.54358155871159E-07,7.33784647627411E-12,-23.8005466461182,61.2423858642578,0.001678886357695,-0.596735239028931,0,0
1152,35.9106633147676,0,0,9.8100004196167,4.80471214814315E-07,9.96620670434822E-08,-3.81163399454376E-11,-23.8005466461182,61.2423858642578,0.001678886357695,-0.596735239028931,0,0
1153,35.9206633145441,0,0,9.8100004196167,-1.70929439491374E-07,-2.40255701555725E-07,3.1944783623894E-11,-23.8005466461182,61.2423858642578,0.001678886357695,-0.596735239028931,0,0
1154,35.9306633143206,0,0,9.8100004196167,4.83530584460823E-07,1.18965459705578E-07,-3.07304771907102E-11,-23.8005466461182,61.2423858642578,0.001678886357695,-0.596735239028931,0,0
1155,35.940663314097,0,0,9.8100004196167,-1.67861273325798E-07,-2.20951832829996E-07,3.27691693224885E-11,-23.8005466461182,61.2423858642578,0.001678886357695,-0.596735239028931,0,0
1156,35.9506633138735,0,0,9.8100004196167,-1.05544324924267E-06,1.39447863034547E-07,7.38812205858253E-11,-23.8005466461182,61.2423858642578,0.001678886357695,-0.596735239028931,0,0
1157,35.96066331365,0,0,9.8100004196167,-1.05268009065185E-06,1.51706757378633E-07,-4.6416967491858E-11,-23.8005466461182,61.2423858642578,0.001678886357695,-0.596735239028931,0,0
1158,35.9706633134265,0,0,9.8100004196167,-1.03475804280606E-06,1.58259240379266E-07,-1.25719573640382E-11,-23.8005466461182,61.2423858642578,0.001678886357695,-0.596735239028931,0,0
1159,35.980663313203,0,0,9.8100004196167,-1.00582485629275E-06,1.59135367994168E-07,-3.21993993968039E-12,-23.8005466461182,61.2423858642578,0.001678886357695,-0.596735239028931,0,0
1160,35.9906633129795,0,0,9.8100004196167,-8.89849616214633E-08,5.1213675078543E-07,-2.25586667401689E-11,-23.8005466461182,61.2423858642578,0.001678886357695,-0.596735239028931,0,0
1161,36.0006633127559,0,0,9.8100004196167,-9.28547763123788E-07,1.66531819445481E-07,6.44968453644701E-11,-23.8005466461182,61.2423858642578,0.001678886357695,-0.596735239028931,0,0
1162,36.0106633125324,0,0,9.8100004196167,-2.3262977322247E-07,-1.90669581456859E-07,-1.15396900368658E-10,-23.8005466461182,61.2423858642578,0.001678886357695,-0.596735239028931,0,0
1163,36.0206633123089,0,0,9.8100004196167,4.17958219145476E-08,-1.90852873060976E-07,4.72085565084157E-12,-23.8005466461182,61.2423858642578,0.001678886357695,-0.596735239028931,0,0
1164,36.0306633120854,0,0,9.8100004196167,9.26518737287552E-08,-1.89553887253169E-07,1.66821695346542E-11,-23.8005466461182,61.2423858642578,0.001678886357695,-0.596735239028931,0,0
1165,36.0406633118619,0,0,9.8100004196167,1.30879797666239E-07,-1.82575931262363E-07,5.33977896621796E-12,-23.8005466461182,61.2423858642578,0.001678886357695,-0.596735239028931,0,0
1166,36.0506633116383,0,0,9.8100004196167,0,0,0,-23.8005466461182,61.2423858642578,0.001678886357695,-0.596735239028931,0,0
1167,36.0606633114148,0,0,9.8100004196167,3.77860409628283E-08,6.97778901326274E-09,-1.80129609145263E-12,-23.8005466461182,61.2423858642578,0.001678886357695,-0.596735239028931,0,0
1168,36.0706633111913,0,0,9.8100004196167,7.57374749582596E-08,1.39561242562536E-08,4.7159541896602E-15,-23.8005466461182,61.2423858642578,0.001678886357695,-0.596735239028931,0,0
1169,36.0806633109678,0,0,9.8100004196167,1.13712786742326E-07,2.09344914736675E-08,4.81089126869172E-13,-23.8005466461182,61.2423858642578,0.001678886357695,-0.596735239028931,0,0
1170,36.0906633107443,0,0,9.8100004196167,1.40188546993159E-07,3.3590694670238E-08,1.96591636199284E-12,-23.8005466461182,61.2423858642578,0.001678886357695,-0.596735239028931,0,0
1171,36.1006633105208,0,0,9.8100004196167,1.66614412933086E-07,4.62473792595119E-08,1.46063760045334E-12,-23.8005466461182,61.2423858642578,0.001678886357695,-0.596735239028931,0,0
1172,36.1106633102972,0,0,9.8100004196167,1.93033159234801E-07,5.89040460852175E-08,1.31903667675848E-12,-23.8005466461182,61.2423858642578,0.001678886357695,-0.596735239028931,0,0
1173,36.1206633100737,0,0,9.8100004196167,2.05272556286218E-07,6.59417409565322E-08,1.64190633745315E-12,-23.8005466461182,61.2423858642578,0.001678886357695,-0.596735239028931,0,0
1174,36.1306633098502,0,0,9.8100004196167,2.05411666343025E-07,6.73550601959505E-08,1.15395366873106E-12,-23.8005466461182,61.2423858642578,0.001678886357695,-0.596735239028931,0,0
1175,36.1406633096267,0,0,9.8100004196167,2.05489101290368E-07,6.87678749500265E-08,3.85417446655684E-13,-23.8005466461182,61.2423858642578,0.001678886357695,-0.596735239028931,0,0
1176,36.1506633094032,0.239971294999123,0.002501909155399,9.82068157196045,1.07869191197096E-05,-0.000148072242155,0.0003997705644,-23.8005218505859,61.2423858642578,0.001679954468273,-0.596509337425232,9.56226431299001E-05,1.92617098946357E-05
1177,36.1606633091797,27.2229328155518,-0.076642274856567,9.56054401397705,-1.81760321993352E-06,0.007055839058012,0.000178302536369,-23.7977752685547,61.2423515319824,0.001656265230849,-0.596407115459442,-0.003961509559304,1.82168278115569E-05
1178,36.1706633089561,26.0020294189453,0.110624983906746,9.65798377990723,-3.09237088913505E-06,0.011426975019276,8.69123832671903E-05,-23.7924289703369,61.2422981262207,0.001617851201445,-0.596357464790344,-0.010511660948396,1.64386892720358E-05
1179,36.1806633087326,24.4051761627197,-0.066032193601132,9.70552539825439,-2.62747721535561E-06,0.014300384558737,5.10369209223427E-05,-23.7846431732178,61.2422142028809,0.001569785992615,-0.59632807970047,-0.018694227561355,1.49257775774458E-05
1180,36.1906633085091,21.3452224731445,0.062104176729918,9.75697422027588,-1.66549546065653E-06,0.015620027668774,3.34160104102921E-05,-23.7747230529785,61.2421112060547,0.001517448341474,-0.596308708190918,-0.027655433863402,1.39637650136137E-05
1181,36.2006633082856,19.6277332305908,-0.035796359181404,9.77829074859619,-1.07422295059223E-06,0.016126470640302,2.10263970075175E-05,-23.7628421783447,61.2419891357422,0.0014632033417,-0.596296668052673,-0.036889851093292,1.33414396259468E-05
1182,36.2106633080621,11.6283798217773,0.000937773264013,9.86456775665283,-1.78208460965834E-06,0.01424456294626,1.680164859863E-05,-23.7497959136963,61.2418556213379,0.001415328937583,-0.596286952495575,-0.045051924884319,1.23135150715825E-05
1183,36.2206633078385,19.4101810455322,0.001907854340971,9.76780509948731,-9.09328207399085E-07,0.014964899979532,2.9244556571939E-06,-23.7348136901855,61.24169921875,0.001365051255561,-0.5962855219841,-0.0536238104105,1.17910331027815E-05
1184,36.230663307615,15.3518390655518,-0.040344841778278,9.82284545898438,8.68299650846893E-07,0.014106119982898,3.19364903589303E-06,-23.7182960510254,61.2415237426758,0.001317710848525,-0.596283495426178,-0.061710756272078,1.22866558740498E-05
1185,36.2406633073915,12.8524131774902,0.013633093796671,9.8406867980957,1.13861392492254E-06,0.012724681757391,4.18083118347568E-06,-23.7004928588867,61.2413368225098,0.001274986192584,-0.596281111240387,-0.068998567759991,1.29362369989394E-05
1186,36.250663307168,12.7735443115234,0.012800252065063,9.83320617675781,7.5412219757709E-07,0.011542148888111,2.53483017331746E-06,-23.6814155578613,61.2411346435547,0.001236267038621,-0.596279561519623,-0.075610190629959,1.33664880195283E-05
1187,36.2606633069445,7.01397848129272,0.032852396368981,9.88099098205566,8.60044792716508E-07,0.0090566650033,2.55724876296881E-06,-23.6616382598877,61.2409324645996,0.001205635024235,-0.596278369426727,-0.080801136791706,1.38572122523328E-05
1188,36.270663306721,11.8557033538818,-0.036771610379219,9.81938934326172,-1.20981985674007E-06,0.0083361370489,-5.1303613872733E-06,-23.6406764984131,61.2407112121582,0.001177711412311,-0.596280992031097,-0.085575439035893,1.31682636492769E-05
1189,36.2806633064974,6.67542743682861,0.029316455125809,9.86332035064697,7.40749271699315E-07,0.006406596396118,-3.15434808726422E-05,-23.619047164917,61.2404861450195,0.001156158396043,-0.596299290657043,-0.089250080287457,1.36203734655282E-05
1190,36.2906633062739,9.69658279418945,-0.019250703975558,9.82374477386475,1.35752657115518E-06,0.005529763642699,1.37537244881969E-05,-23.5964527130127,61.2402534484863,0.00113754265476,-0.596291244029999,-0.092419281601906,1.43856150316424E-05
1191,36.3006633060504,6.17596197128296,0.064106427133083,9.84900951385498,4.65508009028781E-07,0.00406492408365,5.79824009037111E-05,-23.5732383728027,61.2400131225586,0.001123847905546,-0.596258103847504,-0.094748377799988,1.45980156958103E-05
1192,36.3106633058269,7.91780805587769,-0.07777439057827,9.82642650604248,-5.92433025303762E-07,0.003170537762344,-4.1507271816954E-05,-23.5492382049561,61.2397651672363,0.001113128615543,-0.596282005310059,-0.096558377146721,1.42982798934099E-05
1193,36.3206633056034,5.99646949768066,0.062241688370705,9.83449268341064,-1.4428188706006E-06,0.002147279679775,-0.00010205329454,-23.52463722229,61.2395095825195,0.001105880714022,-0.596340656280518,-0.097787812352181,1.35708714879002E-05
1194,36.3306633053799,6.7177996635437,-0.050259839743376,9.82477760314941,-2.58061191971137E-07,0.001374783460051,2.52339486905839E-05,-23.4993667602539,61.2392463684082,0.001101264962927,-0.596326053142548,-0.098580114543438,1.33981275212136E-05
1195,36.3406633051563,5.35709857940674,0.015578257851303,9.8282356262207,2.00945760298055E-06,0.000546189490706,6.23128580627963E-05,-23.4735641479492,61.2389793395996,0.001099395682104,-0.596290349960327,-0.09889430552721,1.44879613799276E-05
1196,36.3506633049328,6.15703868865967,0.023903893306851,9.81807899475098,-1.33264859414339E-06,1.18560279815938E-07,-2.22715334530221E-05,-23.4471454620361,61.2387046813965,0.001099395682104,-0.596290349960327,-0.09889430552721,1.44879613799276E-05
1197,36.3606633047093,4.7174768447876,-0.031077161431313,9.82441139221191,-3.77171687659938E-07,-0.000676336116157,-4.30825457442552E-05,-23.4202575683594,61.2384262084961,0.001101646455936,-0.596327781677246,-0.098511815071106,1.3573061551142E-05
1198,36.3706633044858,5.65730381011963,-0.021293425932527,9.81331634521484,-6.3371452085903E-08,-0.001055328175426,-8.90425508259796E-06,-23.3928050994873,61.2381401062012,0.001105194096453,-0.596333086490631,-0.097903929650784,1.35453374241479E-05
1199,36.3806633042623,4.25640106201172,0.044131565839052,9.82035732269287,1.59082037498592E-06,-0.001577447867021,-1.62206220011285E-06,-23.3649291992187,61.237850189209,0.001110496465117,-0.596333980560303,-0.096995510160923,1.44584146255511E-05
1200,36.3906633040388,5.21740198135376,-0.065869823098183,9.80966854095459,5.75697981730627E-07,-0.001825479208492,-1.1007085959136E-05,-23.3365325927734,61.2375526428223,0.00111663818825,-0.59634006023407,-0.095950491726399,1.47987984746578E-05
1201,36.4006633038152,3.89560103416443,0.080383650958538,9.81692790985107,1.01598391211155E-06,-0.002223280025646,-1.2277387213544E-05,-23.3077487945557,61.2372550964355,0.001124114962295,-0.596347332000732,-0.094680078327656,1.53926466737175E-05
1202,36.4106633035917,4.87654781341553,-0.029409512877464,9.80664825439453,-9.4372018111244E-07,-0.002362893195823,-1.17312602014863E-05,-23.2784786224365,61.2369499206543,0.001132049481384,-0.596353828907013,-0.093320868909359,1.48629960676772E-05
1203,36.4206633033682,3.61594843864441,-0.002525504212826,9.81413841247559,-1.07509514180038E-07,-0.002662697574124,-1.22907258628402E-05,-23.2488498687744,61.236644744873,0.001140975975432,-0.596360981464386,-0.091790907084942,1.48128665387048E-05
1204,36.4306633031447,4.51561975479126,0.00684251729399,9.80480766296387,-3.56405735146836E-07,-0.002716726390645,-1.36098078655778E-05,-23.2187690734863,61.2363319396973,0.00115009304136,-0.596368730068207,-0.090233623981476,1.46209949889453E-05
1205,36.4406633029212,3.39540386199951,-0.004814555868506,9.8123950958252,-1.17605316063418E-06,-0.002937643788755,-1.37081970024155E-05,-23.1883506774902,61.2360153198242,0.001159973093309,-0.596376538276672,-0.088560231029987,1.395950675942E-05
1206,36.4506633026976,4.31546926498413,-0.035236075520516,9.80308628082275,-1.18187108455459E-06,-0.002924697007984,-1.34131632876233E-05,-23.1575050354004,61.2356910705566,0.001169815077446,-0.596384048461914,-0.086879998445511,1.32939530885778E-05
1207,36.4606633024741,3.15440845489502,0.032685980200768,9.81028270721436,6.99982592777815E-07,-0.00308517483063,-1.20495951705379E-05,-23.1263427734375,61.2353630065918,0.00118015287444,-0.596391081809998,-0.085124641656876,1.37054166771122E-05
1208,36.4706633022506,4.0944619178772,0.002473037224263,9.80100154876709,1.9190724742657E-06,-0.003020574804395,-1.04023611129378E-05,-23.0947723388672,61.2350387573242,0.001190185546875,-0.596397161483765,-0.083376117050648,1.48137232827139E-05
1209,36.4806633020271,3.03422689437866,-0.008559990674257,9.81064701080322,1.28625265460869E-06,-0.003135592211038,-9.41303187573794E-06,-23.0629005432129,61.2347068786621,0.001200714032166,-0.59640246629715,-0.081593438982964,1.55583511514124E-05
1210,36.4906633018036,3.89386820793152,0.000392196234316,9.80115127563477,4.25646618396058E-07,-0.00303203961812,-1.04352011476294E-05,-23.0306396484375,61.2343673706055,0.001210899325088,-0.596408426761627,-0.079844906926155,1.58107195602497E-05
1211,36.5006633015801,2.9136266708374,-0.009808383882046,9.80870723724365,6.56062127291079E-07,-0.003112539183348,-9.39463916438399E-06,-22.9980907440186,61.2340316772461,0.001221351558343,-0.596413910388947,-0.078069061040878,1.61941461556125E-05
1212,36.5106633013565,3.75286293029785,0.038933474570513,9.80081272125244,-1.30622439087347E-07,-0.002980315126479,-8.56104998092633E-06,-22.9651660919189,61.2336883544922,0.001231384230778,-0.596418678760529,-0.076361507177353,1.61259340529796E-05
1213,36.520663301133,2.81345677375793,-0.050846736878157,9.80787086486816,-9.49011621287355E-07,-0.003035472938791,-9.72733687376604E-06,-22.9319629669189,61.2333450317383,0.0012415695237,-0.596424162387848,-0.074619814753532,1.55894849740434E-05
1214,36.5306633009095,3.63270282745361,-0.00231284298934,9.80042171478272,-7.18744615824107E-07,-0.002883828943595,-1.17274112199084E-05,-22.8983955383301,61.2329902648926,0.001251258770935,-0.596431195735931,-0.072960078716278,1.51864378494793E-05
1215,36.540663300686,2.71206188201904,0.028108479455114,9.80854225158691,-3.32331126173813E-07,-0.002921151230112,-9.67085998127004E-06,-22.864559173584,61.2326393127441,0.001261138939299,-0.596436619758606,-0.071300342679024,1.50029563883436E-05
1216,36.5506633004625,3.53215146064758,-0.003353176405653,9.79922389984131,-5.57846249193972E-07,-0.002755583962426,-1.04811479104683E-05,-22.8303699493408,61.2322845458984,0.001270370441489,-0.596442639827728,-0.069715738296509,1.4690684110974E-05
1217,36.560663300239,2.65193653106689,-0.01251338608563,9.80799961090088,2.15553356497367E-07,-0.002780921990052,-1.13955020424328E-05,-22.795919418335,61.2319221496582,0.001279716496356,-0.596449196338654,-0.068124301731587,1.48221342897159E-05
1218,36.5706633000154,3.43079710006714,0.075602293014526,9.80029296875,4.90404602260242E-07,-0.002607886679471,-9.40030895435484E-06,-22.7611255645752,61.2315673828125,0.001288490253501,-0.596454381942749,-0.066628493368626,1.51093900058186E-05
1219,36.5806632997919,2.61225748062134,-0.09292484074831,9.80742073059082,-4.58007946235739E-07,-0.002623581793159,-1.3701852367376E-05,-22.7260704040527,61.231201171875,0.001297302194871,-0.596462428569794,-0.065125852823258,1.48560302477563E-05
1220,36.5906632995684,3.37071919441223,0.034980695694685,9.80053520202637,-1.64007403213873E-07,-0.002446867059916,-1.27931743918452E-05,-22.6906814575195,61.230827331543,0.001305541954935,-0.596469581127167,-0.06371883302927,1.47703594848281E-05
1221,36.6006632993449,2.53094744682312,-0.013761472888291,9.8076343536377,-5.3461030802282E-07,-0.002458371222019,-9.87029761745362E-06,-22.6550388336182,61.2304573059082,0.001313819899224,-0.59647524356842,-0.062311813235283,1.44701780300238E-05
1222,36.6106632991214,3.31067204475403,-0.005641092080623,9.79808902740479,2.26929174118595E-07,-0.00228023971431,-1.0358375220676E-05,-22.6190662384033,61.2300834655762,0.001321258489043,-0.596481323242188,-0.061007246375084,1.46066031447845E-05
1223,36.6206632988978,2.53008818626404,0.02623693458736,9.81232738494873,1.76841083998625E-07,-0.002289399039,-1.08135200207471E-05,-22.5828437805176,61.2297058105469,0.001329193124548,-0.596487402915955,-0.059695851057768,1.47144446600578E-05
1224,36.6306632986743,3.25024271011353,-0.00626500044018,9.79638767242432,3.92416694694475E-07,-0.002112210262567,-9.37378263188293E-06,-22.5462951660156,61.2293243408203,0.001336097717285,-0.596493005752564,-0.05848690494895,1.49448242154904E-05
1225,36.6406632984508,2.49050569534302,-0.054174590855837,9.8101863861084,4.92260312512372E-07,-0.002120321150869,-9.04643002286321E-06,-22.5094985961914,61.2289390563965,0.001343269366771,-0.596498131752014,-0.057271134108305,1.5232079931593E-05
1226,36.6506632982273,3.22901725769043,0.073523104190827,9.80111885070801,6.4983333913915E-07,-0.001946207950823,-7.85869815445039E-06,-22.4723815917969,61.2285537719727,0.001349868718535,-0.596502602100372,-0.056157812476158,1.56088899530005E-05
1227,36.6606632980038,2.43012380599976,-0.054798725992441,9.80767059326172,7.86118448559137E-07,-0.001954219536856,-7.37591881261324E-06,-22.435022354126,61.2281608581543,0.001356468186714,-0.596506834030151,-0.055037662386894,1.60634990606923E-05
1228,36.6706632977803,3.18906855583191,0.03310938179493,9.8012752532959,3.59831773266706E-07,-0.001782648963854,-5.80918322157231E-06,-22.3973426818848,61.2277717590332,0.001362495357171,-0.596510291099548,-0.054013133049011,1.62728501891252E-05
1229,36.6806632975567,2.44935584068298,-0.014592333696783,9.80774211883545,-1.61211232807545E-07,-0.001795742777176,-7.60354396334151E-06,-22.3594207763672,61.2273750305176,0.001368522644043,-0.596514403820038,-0.052988603711128,1.61844982358161E-05
1230,36.6906632973332,3.1491527557373,-0.007304531056434,9.80218315124512,-7.29832152046583E-07,-0.001631501247175,-6.64077151668607E-06,-22.3211860656738,61.2269744873047,0.001374053885229,-0.596518278121948,-0.052052870392799,1.57698832481401E-05
1231,36.7006632971097,2.42861795425415,0.025197517126799,9.80822086334229,9.18366112045987E-08,-0.00165156123694,-5.8577556956152E-06,-22.2827072143555,61.2265739440918,0.001379623427056,-0.596521556377411,-0.051103472709656,1.58255115820793E-05
1232,36.7106632968862,3.04884934425354,-0.008345275186002,9.80198955535889,2.02185375997033E-07,-0.001497121644206,-4.92968820253736E-06,-22.2439250946045,61.2261695861816,0.001384658738971,-0.596524477005005,-0.050249699503183,1.59438786795363E-05
1233,36.7206632966627,2.42832350730896,0.025197893381119,9.80867385864258,1.03768707049312E-06,-0.00151980179362,-5.47616537005524E-06,-22.2049026489258,61.2257652282715,0.001389770419337,-0.596527576446533,-0.049382265657187,1.65411147463601E-05
1234,36.7306632964392,3.00898432731628,-0.048759013414383,9.80249214172363,8.45311092234624E-07,-0.001373979030177,-6.22807692707283E-06,-22.1655788421631,61.2253532409668,0.001394386286847,-0.59653115272522,-0.048589963465929,1.70285275089555E-05
1235,36.7406632962156,2.38763666152954,0.06477964669466,9.80877685546875,1.38813021521855E-07,-0.001398670603521,-5.2560221774911E-06,-22.1260147094727,61.2249450683594,0.001399078289978,-0.596534132957459,-0.047790832817555,1.71105220942991E-05
1236,36.7506632959921,3.00872302055359,-0.048758666962385,9.80295467376709,-2.20246036519711E-07,-0.001259094686247,-6.81749861541903E-06,-22.0861549377441,61.2245292663574,0.001403312664479,-0.596537947654724,-0.047060001641512,1.69875420397148E-05
1237,36.7606632957686,2.38821959495544,-0.015215801075101,9.80883502960205,-8.47485580379725E-07,-0.001284589641728,-6.60909108773922E-06,-22.0460548400879,61.2241096496582,0.001407623291016,-0.596541821956635,-0.046329170465469,1.65050787472865E-05
1238,36.7706632955451,2.92765498161316,0.030404351651669,9.80347537994385,-4.05487909915792E-08,-0.001153457211331,-5.31959085492417E-06,-22.0056610107422,61.223690032959,0.001411514240317,-0.596544861793518,-0.045659810304642,1.64842604135629E-05
1239,36.7806632953216,2.38799047470093,-0.015215548686683,9.80889129638672,-1.33795509782431E-07,-0.001178275910206,-5.97894177190028E-06,-21.965030670166,61.2232666015625,0.00141548155807,-0.59654825925827,-0.044990453869104,1.64103039423935E-05
1240,36.7906632950981,2.90785527229309,-0.009801405481994,9.80355548858643,-1.30620293248285E-07,-0.001054082298651,-5.4847619139764E-06,-21.9241104125977,61.2228393554688,0.001419029198587,-0.596551239490509,-0.044389396905899,1.63379081641324E-05
1241,36.8006632948745,2.38736581802368,0.024782449007034,9.80894088745117,-7.20021546385397E-07,-0.001079651410691,-5.09696792505565E-06,-21.8829536437988,61.222412109375,0.001422653207555,-0.596554219722748,-0.043774679303169,1.59276314661838E-05
1242,36.810663294651,2.84724259376526,0.029571956023574,9.80404186248779,-1.98690102592991E-07,-0.000963620201219,-5.45752709513181E-06,-21.8415107727051,61.221981048584,0.001425895607099,-0.596557676792145,-0.043221436440945,1.58161819854286E-05
1243,36.8206632944275,2.4080057144165,-0.05500466004014,9.80897235870361,6.25464053882752E-07,-0.000986997270957,-5.83110295337974E-06,-21.7998294830322,61.2215461730957,0.001429214491509,-0.596560895442963,-0.042654529213905,1.61770585691556E-05
1244,36.830663294204,2.82747650146484,-0.010633764788509,9.80410957336426,-2.25470230930114E-07,-0.000881276908331,-5.12769520355505E-06,-21.7578659057617,61.2211074829102,0.001432151766494,-0.596563816070557,-0.042149096727371,1.60500258061802E-05
1245,36.8406632939805,2.40699887275696,0.024991136044264,9.80939674377441,-7.5203195137874E-07,-0.000899538688827,-4.29286137659801E-06,-21.7156620025635,61.2206687927246,0.00143520347774,-0.596566379070282,-0.04163683205843,1.56209353008308E-05
1246,36.850663293757,2.74731421470642,-0.011466472409666,9.80459403991699,7.10173424067762E-07,-0.000808887532912,-4.5670976760448E-06,-21.6731834411621,61.2202224731445,0.001437911996618,-0.596568942070007,-0.041172377765179,1.60297531692777E-05
1247,36.8606632935334,2.44683599472046,0.025407871231437,9.80864715576172,1.8158286252401E-07,-0.000817397900391,-2.38430948229507E-06,-21.6304607391357,61.2197799682617,0.001440658583306,-0.596570432186127,-0.040701095014811,1.61347688845126E-05
1248,36.8706632933099,2.72716283798218,-0.011674549430609,9.80579662322998,4.35853252156448E-07,-0.000746118428651,-9.30863564008178E-07,-21.5874671936035,61.2193298339844,0.001443176181056,-0.59657096862793,-0.040277622640133,1.63849235832458E-05
1249,36.8806632930864,2.4471070766449,-0.014589841477573,9.80791759490967,5.20716525898024E-07,-0.00074420607416,-4.62430733705332E-07,-21.5442314147949,61.218879699707,0.001445655827411,-0.59657096862793,-0.039854150265455,1.66834506671876E-05
1250,36.8906632928629,2.60661196708679,0.027073906734586,9.80668354034424,-2.63297380342919E-07,-0.000688430387527,-1.21872972158599E-06,-21.500732421875,61.2184257507324,0.001447982736863,-0.596571683883667,-0.03945117071271,1.65330984600587E-05
1251,36.9006632926394,2.52696704864502,-0.013756810687482,9.80789756774902,4.07169181926292E-07,-0.00067818473326,-9.81971766123024E-07,-21.4569816589355,61.2179718017578,0.001450271578506,-0.59657233953476,-0.039061848074198,1.67668003996368E-05
1252,36.9106632924158,2.58648467063904,0.026865806430578,9.80673027038574,1.83696897693153E-07,-0.000636669225059,-2.25214444071753E-06,-21.4129734039307,61.2175140380859,0.001452407799661,-0.596573531627655,-0.038699850440025,1.68728838616516E-05
1253,36.9206632921923,2.50684523582458,-0.013964901678264,9.80756282806397,2.03862136061161E-08,-0.000620187318418,-2.97504448099062E-06,-21.3687152862549,61.2170524597168,0.001454467768781,-0.596575260162354,-0.03834468126297,1.68856895470526E-05
1254,36.9306632919688,2.54678559303284,-0.013548350892961,9.80755043029785,5.84732653408082E-08,-0.000588185619563,-2.61561467596039E-06,-21.3242034912109,61.2165908813477,0.00145645136945,-0.596576750278473,-0.038010001182556,1.69202266988577E-05
1255,36.9406632917453,2.48631644248962,0.025824768468738,9.80760478973389,-8.38422806737071E-07,-0.000568521965761,-3.62634318662458E-06,-21.2794437408447,61.2161254882813,0.001458358718082,-0.59657883644104,-0.03768215328455,1.64412158483174E-05
1256,36.9506632915218,2.52667665481567,-0.013756508938968,9.80759239196777,-2.90429056803987E-07,-0.000542331195902,-4.04018283006735E-06,-21.2344303131103,61.2156562805176,0.001460189814679,-0.596581101417542,-0.037367962300778,1.62762862601085E-05
1257,36.9606632912983,2.52704405784607,-0.053754340857267,9.80760478973389,-9.41839573442849E-07,-0.000521314505022,-3.67637653653219E-06,-21.1891670227051,61.2151832580566,0.001461944542825,-0.596583187580109,-0.037081096321344,1.57380927703343E-05
1258,36.9706632910747,2.52574586868286,0.066239289939404,9.8076171875,7.66631842452625E-07,-0.000499123823829,-2.67066980086383E-06,-21.1436519622803,61.2147102355957,0.001463623018935,-0.596584737300873,-0.036794226616621,1.61782809300348E-05
1259,36.9806632908512,2.46695041656494,-0.054378870874643,9.80766773223877,-2.39598620055403E-07,-0.000479434122099,-3.15323677568813E-06,-21.0978908538818,61.2142333984375,0.00146522524301,-0.596586644649506,-0.036514189094305,1.60421950567979E-05
1260,36.9906632906277,2.48565578460693,0.065822996199131,9.80804920196533,6.46730143216701E-07,-0.000458861351945,-2.93145262730832E-06,-21.0518798828125,61.213752746582,0.001466789166443,-0.59658819437027,-0.036254640668631,1.64138054969953E-05
1261,37.0006632904042,2.50685906410217,-0.05396218970418,9.80728149414063,-4.94068558509753E-07,-0.000438983232016,-4.1070247789321E-06,-21.0056190490723,61.2132682800293,0.00146823877003,-0.596590638160706,-0.035995095968247,1.61321895575384E-05
1262,37.0106632901807,2.46598792076111,0.025617104023695,9.80808353424072,5.71582518205105E-07,-0.000420587894041,-2.83806889456173E-06,-20.959114074707,61.2127876281738,0.001469650189392,-0.596592247486115,-0.035756036639214,1.64606917678611E-05
1263,37.0206632899572,2.5263614654541,-0.013756001368165,9.80805397033691,-1.26739610095683E-06,-0.000402518198825,-4.38927327195415E-06,-20.9123554229736,61.2122993469238,0.001471023540944,-0.596594750881195,-0.035523813217878,1.57361118908739E-05
1264,37.0306632897336,2.44591164588928,0.025408964604139,9.80773162841797,3.45195275031074E-07,-0.00038505232078,-3.717675781445E-06,-20.8653526306152,61.2118110656738,0.001472320524044,-0.596596837043762,-0.035305246710777,1.5935200281092E-05
1265,37.0406632895101,2.48628997802734,-0.01417232863605,9.80809688568115,-6.4444884628756E-07,-0.000368825043552,-4.18224180975813E-06,-20.8181018829346,61.2113151550293,0.001473579322919,-0.596599280834198,-0.035093508660793,1.5567418813589E-05
1266,37.0506632892866,2.46625566482544,-0.014380474574864,9.80773830413818,5.2660868732346E-07,-0.000352196628228,-2.35577135754284E-06,-20.7706069946289,61.210823059082,0.001474761986174,-0.596600532531738,-0.034888602793217,1.5869958588155E-05
1267,37.0606632890631,2.46580672264099,0.0256174094975,9.80812644958496,-3.29098213569523E-07,-0.000337446224876,-3.43469309882494E-06,-20.7228660583496,61.2103271484375,0.001475906348787,-0.596602499485016,-0.034697357565165,1.56825699377805E-05
1268,37.0706632888396,2.48619031906128,-0.0141721367836,9.80774116516113,-6.81780704780977E-07,-0.000322258973029,-3.93814434573869E-06,-20.6748752593994,61.2098274230957,0.001476974459365,-0.596604764461517,-0.03451294451952,1.529328073957E-05
1269,37.0806632886161,2.4657461643219,0.025617469102144,9.8085241317749,-6.90389981627959E-07,-0.000307853595586,-3.8935449993005E-06,-20.6266403198242,61.2093238830566,0.001478042569943,-0.596607029438019,-0.034342188388109,1.48990920934011E-05
1270,37.0906632883925,2.446133852005,-0.01458858884871,9.80739974975586,-6.00689190832782E-07,-0.000294370169286,-3.24094617099036E-06,-20.5781593322754,61.2088203430176,0.001478996244259,-0.596608877182007,-0.034171435981989,1.45560115925036E-05
1271,37.100663288169,2.46610522270203,-0.014380312524736,9.80853748321533,-6.99033364526258E-07,-0.000280554377241,-3.80241954189842E-06,-20.5294322967529,61.2083129882813,0.001479949918576,-0.596611082553864,-0.034007508307695,1.41567952596233E-05
1272,37.1106632879455,2.46566390991211,0.025617538020015,9.8081636428833,-7.06185403487325E-07,-0.000267946568783,-3.76628963749681E-06,-20.4804611206055,61.2078056335449,0.001480865408666,-0.596613168716431,-0.033864077180624,1.37534889290691E-05
1273,37.120663287722,2.46605348587036,-0.014380036853254,9.80778789520264,1.30694763811334E-06,-0.000255632447079,-4.98019244332681E-06,-20.4312438964844,61.2072944641113,0.001481704646721,-0.596616089344025,-0.033706981688738,1.45039666676894E-05
1274,37.1306632874985,2.44644808769226,-0.054585933685303,9.80856895446777,5.22934158198041E-07,-0.000244100388954,-5.58393185201567E-06,-20.3817825317383,61.2067756652832,0.001482543884777,-0.596619248390198,-0.033570379018784,1.48054768942529E-05
1275,37.1406632872749,2.44517493247986,0.065407745540142,9.80781173706055,1.06238314856455E-06,-0.000233114609728,-3.69960503121547E-06,-20.3320751190186,61.2062568664551,0.001483306870796,-0.596621334552765,-0.033433772623539,1.54154131450923E-05
1276,37.1506632870514,2.46640133857727,-0.054377295076847,9.80856800079346,1.18859122721915E-06,-0.00022176875791,-3.02814601127466E-06,-20.2821235656738,61.2057342529297,0.0014840697404,-0.596623122692108,-0.033304002135992,1.60974195750896E-05
1277,37.1606632868279,2.44513297080994,0.065408036112785,9.80820465087891,5.27594579580182E-07,-0.000211910912185,-1.71256510839157E-06,-20.2319278717041,61.2052116394043,0.001484794542193,-0.59662401676178,-0.033187888562679,1.64002831297694E-05
1278,37.1706632866044,2.44676828384399,-0.054585251957178,10.5177412033081,-3.57878576551229E-07,-0.000237960048253,-1.72340367043944E-06,-20.1814880371094,61.2046852111816,0.001556434552185,-0.596625030040741,-0.033051282167435,1.6195815987885E-05
1279,37.1806632863809,2.4254322052002,0.025201912969351,9.68196296691895,-2.25041034696005E-07,-0.000224996954785,-9.04656531020009E-07,-20.1308059692383,61.204158782959,0.001615409855731,-0.596625566482544,-0.032921511679888,1.60671552293934E-05
1280,37.1906632861574,2.505854845047,-0.013962876051664,9.70022201538086,5.63645187412476E-07,-0.000194209991605,-1.89361742286565E-06,-20.0798740386963,61.2036247253418,0.001663551316597,-0.596625566482544,-0.032921511679888,1.60671552293934E-05
1281,37.2006632859338,2.34541893005371,0.024368913844228,9.71787452697754,-1.12378518224432E-06,-0.00020197496633,-1.27807118133205E-06,-20.0287075042725,61.2030944824219,0.001702613779344,-0.596627414226532,-0.032696112990379,1.57472768478328E-05
1282,37.2106632857103,2.54583144187927,-0.013546326197684,9.72958564758301,-1.01393851537068E-07,-0.000158617287525,-3.24757229464012E-06,-19.9772891998291,61.2025566101074,0.001733779907227,-0.596627414226532,-0.032696112990379,1.57472768478328E-05
1283,37.2206632854868,2.30581951141357,-0.016045771539211,9.74498748779297,-5.77898219944473E-07,-0.00019678749959,1.53597866301425E-05,-19.9256362915039,61.202018737793,0.001758575439453,-0.596620440483093,-0.03249803930521,1.5354118659161E-05
1284,37.2306632852633,1.14501106739044,0.051871411502361,9.76396465301514,-1.39831030310233E-07,-0.00050671515055,-3.37581695930567E-05,-19.873872756958,61.2014846801758,0.00177883147262,-0.596639752388001,-0.032211169600487,1.52849297592184E-05
1285,37.2406632850398,1.0057692527771,-0.029582519084215,9.77701854705811,-2.58869846447851E-07,-0.000903795124032,4.08575215260498E-05,-19.8220100402832,61.2009391784668,0.001795844989829,-0.596616327762604,-0.031685244292021,1.51235835801344E-05
1286,37.2506632848163,-5.09455013275147,-0.053101070225239,9.8329029083252,1.78227310243528E-06,-0.002671531168744,2.14690662687644E-05,-19.7706546783447,61.2004051208496,0.001814880291931,-0.59660404920578,-0.030148454010487,1.61381158250151E-05
1287,37.2606632845927,1.50441372394562,0.055619273334742,9.7653751373291,-1.01162879673211E-06,-0.002323537599295,-8.76957017226232E-07,-19.7191505432129,61.1998672485352,0.001829528715462,-0.596604585647583,-0.028816565871239,1.55587404151447E-05
1288,37.2706632843692,-2.45563888549805,0.014385541900992,9.80429840087891,6.42160216557386E-07,-0.002926882589236,-8.1374073488405E-06,-19.6678943634033,61.199333190918,0.001843490521424,-0.596609175205231,-0.027143171057105,1.59289975272259E-05
1289,37.2806632841457,1.74471807479858,-0.021876964718104,9.76801776885986,7.28635086488794E-07,-0.002352071460336,-8.03436250862433E-06,-19.6164608001709,61.1987991333008,0.001853332505561,-0.596613883972168,-0.025783963501453,1.6348561985069E-05
1290,37.2906632839222,-2.73614096641541,0.011469588615,9.81382083892822,-8.65543483996589E-07,-0.002972202375531,-6.77376146995812E-06,-19.5653038024902,61.1982650756836,0.001863441430032,-0.596617817878723,-0.02409690618515,1.58543098223163E-05
1291,37.3006632836987,2.18460941314697,-0.05729303508997,9.76602458953857,9.74597611502759E-08,-0.002182625001296,-4.42992177340784E-06,-19.5139274597168,61.1977272033691,0.001869239727966,-0.596620440483093,-0.022846981883049,1.59112278197426E-05
1292,37.3106632834752,-2.39705157279968,0.055007554590702,9.82042980194092,2.46071692799887E-07,-0.002689190441743,-5.81159702051082E-06,-19.4627914428711,61.1971969604492,0.001875991816632,-0.596623659133911,-0.021303359419108,1.60534946189728E-05
1293,37.3206632832516,2.42373752593994,-0.014795880764723,9.76718139648438,4.40991982486594E-07,-0.001835075905547,-1.83401266440342E-06,-19.411413192749,61.1966590881348,0.001878547598608,-0.596624970436096,-0.020251510664821,1.63065615197411E-05
1294,37.3306632830281,-2.13705778121948,0.017716985195875,9.82367706298828,-3.89737778050403E-07,-0.002319185761735,-2.02960404749319E-06,-19.3602504730225,61.1961250305176,0.001882400480099,-0.596625983715057,-0.018912792205811,1.60836661962094E-05
1295,37.3406632828046,2.66335964202881,-0.012296766042709,9.76948642730713,3.68257502714187E-07,-0.001430864213035,1.07838422991335E-06,-19.3088188171387,61.1955909729004,0.001882286043838,-0.596625447273254,-0.018106831237674,1.62944597832393E-05
1296,37.3506632825811,-1.87739765644074,0.020424403250218,9.82734203338623,3.84327904612292E-07,-0.001913009211421,-1.68481233231432E-06,-19.2575778961182,61.1950569152832,0.001883850083686,-0.596626162528992,-0.017007170245051,1.65149758686312E-05
1297,37.3606632823576,2.90347743034363,-0.049795418977738,9.77216625213623,1.17481746997328E-07,-0.001020054798573,4.01890133616689E-07,-19.2060451507568,61.1945190429688,0.001881713862531,-0.596626043319702,-0.016426604241133,1.65822239068802E-05
1298,37.370663282134,-1.65807509422302,0.062713012099266,9.82914257049561,-5.76392608309106E-07,-0.001518119010143,-1.14438876153145E-06,-19.1546802520752,61.1939888000488,0.001881446805783,-0.596626579761505,-0.015552340075374,1.62521519087022E-05
1299,37.3806632819105,3.10283994674683,-0.007715033832937,9.7744665145874,-2.77777104429333E-07,-0.000634012743831,-7.76282035985787E-07,-19.1030044555664,61.1934509277344,0.001877708360553,-0.596627116203308,-0.015190339647234,1.6093112208182E-05
1300,37.390663281687,-1.45742893218994,-0.015200073830783,9.83211231231689,5.9288322518114E-07,-0.00115239911247,-2.10654184229497E-06,-19.0514736175537,61.1929130554199,0.001876144320704,-0.596628367900848,-0.014520981349051,1.64331304404186E-05
1301,37.4006632814635,3.30310487747192,-0.045630097389221,9.77560329437256,6.29644205218938E-07,-0.000285599991912,2.42549646145562E-07,-18.9996128082275,61.1923713684082,0.00187122344505,-0.596628189086914,-0.014363886788488,1.67938378581312E-05
1302,37.41066328124,-1.23838257789612,0.067086458206177,9.83395290374756,-2.20163954622876E-07,-0.000829271273687,-1.59445448844053E-06,-18.9478778839111,61.1918334960938,0.00186866754666,-0.596629023551941,-0.013885773718357,1.666795105848E-05
1303,37.4206632810165,3.46301507949829,-0.043964002281427,9.77749919891357,-3.09298570755345E-07,1.55048801389057E-05,4.06041181122419E-07,-18.8957958221436,61.191291809082,0.001862945500761,-0.596629023551941,-0.013885773718357,1.666795105848E-05
1304,37.4306632807929,-1.07802605628967,0.028754660859704,9.83467102050781,-1.23037139587723E-07,-0.000551736680791,-4.35386510844182E-07,-18.843822479248,61.1907501220703,0.001859664916992,-0.596629023551941,-0.013585245236755,1.64202519954415E-05
1305,37.4406632805694,3.62298226356506,-0.042298041284084,9.77899551391602,-3.69371235819926E-07,0.00027134193806,1.42746864639776E-06,-18.7914848327637,61.1902046203613,0.001853370573372,-0.596628487110138,-0.013742339797318,1.62084033945575E-05
1306,37.4506632803459,-0.898456692695618,0.070626772940159,9.83615398406982,-1.29507768065196E-07,-0.000316468096571,-1.10422297439072E-06,-18.7392406463623,61.1896629333496,0.001849670312367,-0.596629023551941,-0.013557924889028,1.61343577929074E-05
1307,37.4606632801224,3.76299142837524,-0.04084026068449,9.78010082244873,-5.55929887013917E-07,0.000483133975649,2.73678466555793E-07,-18.6866188049316,61.1891136169434,0.001843070960604,-0.596628963947296,-0.013837962411344,1.58157927216962E-05
1308,37.4706632798989,-0.777581989765167,-0.008119387552142,9.83650970458984,4.10918971738283E-07,-0.000123057237943,-2.15331766639792E-07,-18.6340751647949,61.1885681152344,0.001839103642851,-0.596628963947296,-0.013837962411344,1.58157927216962E-05
1309,37.4806632796754,3.88261961936951,0.000407068670029,9.78043174743652,-6.18148476405622E-07,0.000653277616948,1.03524348560313E-06,-18.5811424255371,61.1880149841309,0.001832275302149,-0.596628487110138,-0.014138490892947,1.56969363160897E-05
1310,37.4906632794518,-0.617538869380951,-0.00645332923159,9.83761882781982,-5.35723984285141E-07,3.29393369611353E-05,-1.42183534990181E-06,-18.5282726287842,61.1874656677246,0.001828193664551,-0.596628487110138,-0.014138490892947,1.56969363160897E-05
1311,37.5006632792283,3.98269510269165,0.001448379945941,9.78152084350586,2.62364693526251E-07,0.000788597797509,2.24832206185965E-07,-18.475004196167,61.1869087219238,0.001821365323849,-0.596629023551941,-0.014609773643315,1.55404959514271E-05
1312,37.5106632790048,-0.517879962921143,0.034585766494274,9.8372163772583,4.15228157635283E-07,0.00015508053184,1.09681047888444E-06,-18.4217872619629,61.1863555908203,0.00181724538561,-0.596629023551941,-0.014609773643315,1.55404959514271E-05
1313,37.5206632787813,4.10279130935669,0.002697870600969,9.78182888031006,3.79968355446181E-07,0.000890937575605,2.25342137127882E-06,-18.3681621551514,61.1857986450195,0.001810417161323,-0.596627116203308,-0.01521083060652,1.59956125571625E-05
1314,37.5306632785578,-0.417340755462647,-0.004370745271444,9.83834075927734,-5.91699460983364E-07,0.000247649702942,-1.92731386050582E-06,-18.3145790100098,61.1852416992187,0.001806411659345,-0.596628129482269,-0.015354264527559,1.56568912643706E-05
1315,37.5406632783343,4.16290664672852,0.003322598990053,9.78176212310791,-6.98520068453945E-07,0.000966873834841,6.02743170929898E-08,-18.2605781555176,61.1846809387207,0.00179969787132,-0.596628189086914,-0.015907509252429,1.52566581164137E-05
1316,37.5506632781107,-0.316804021596909,-0.043327331542969,9.83869934082031,1.93975139950453E-07,0.00031519838376,5.97759651554952E-07,-18.2066097259521,61.1841201782227,0.001795844989829,-0.59662789106369,-0.016085093840957,1.53676719492069E-05
1317,37.5606632778872,4.24344968795776,-0.035842325538397,9.78206348419189,-8.51340530516609E-07,0.001018312177621,1.09194638753252E-06,-18.1522178649902,61.1835479736328,0.001789321890101,-0.596627354621887,-0.016672490164638,1.48797189467587E-05
1318,37.5706632776637,-0.237921997904778,0.077499143779278,9.83829879760742,3.54672749836027E-07,0.000361920072464,-1.8951733409267E-06,-18.0978488922119,61.1829833984375,0.001785621629097,-0.596628189086914,-0.016877396032214,1.50832420331426E-05
1319,37.5806632774402,4.32358312606812,-0.035009063780308,9.78312397003174,1.20442030038248E-06,0.001049870043062,1.19358844585804E-07,-18.0430507659912,61.1824111938477,0.001779365469702,-0.596628367900848,-0.01747845299542,1.57732920342823E-05
1320,37.5906632772167,-0.156951636075973,-0.001663468545303,9.83751583099365,-1.12714781153045E-06,0.000390591885662,2.67144559984445E-06,-17.9882659912109,61.1818389892578,0.00177585601341,-0.596626579761505,-0.017703849822283,1.51270278365701E-05
1321,37.6006632769931,4.34330749511719,0.005196686368436,9.78305530548096,5.93552329064551E-07,0.001065947348252,3.83307178708492E-06,-17.933048248291,61.1812629699707,0.001769790658727,-0.596624493598938,-0.018311735242605,1.54664139699889E-05
1322,37.6106632767696,-0.076811484992504,-0.000830395612866,9.83825302124023,-2.11621369317072E-07,0.000404518388677,-7.5414811817609E-07,-17.8778381347656,61.1806869506836,0.001766548142768,-0.596624970436096,-0.018543962389231,1.53453111124691E-05
1323,37.6206632765461,4.40344953536987,0.005821343977004,9.78335189819336,-7.74547217474719E-08,0.001067365985364,3.20923595609202E-06,-17.8221874237061,61.1801071166992,0.001760787912644,-0.596623420715332,-0.019158679991961,1.530032568553E-05
1324,37.6306632763226,-0.036668483167887,-0.000413888017647,9.83747863769531,-2.99338118736614E-08,0.000405722967116,5.34697846887866E-06,-17.7665405273438,61.1795234680176,0.001757774269208,-0.596620142459869,-0.019390905275941,1.52821594383568E-05
1325,37.6406632760991,4.44400644302368,-0.033760469406843,9.78365325927734,1.02076717212185E-06,0.001057823887095,7.84643543738639E-06,-17.7104511260986,61.1789398193359,0.001752281095833,-0.596615791320801,-0.019991962239146,1.58654347615084E-05
1326,37.6506632758756,0.023053649812937,0.04020893201232,9.83745861053467,1.26880740936031E-06,0.0003980222682,2.14259443964693E-06,-17.6543598175049,61.178352355957,0.00174953462556,-0.596614301204681,-0.02021735906601,1.65919882419985E-05
1327,37.660663275652,4.48414516448975,-0.033344134688377,9.7835750579834,4.31548841106633E-07,0.001039365190081,5.28922373632668E-06,-17.5978202819824,61.1777610778809,0.001744308392517,-0.596611380577087,-0.020818416029215,1.68381575349485E-05
1328,37.6706632754285,0.043609656393528,0.000419431977207,9.83707046508789,3.90871008448812E-07,0.000381282967282,7.15167925591231E-06,-17.5412750244141,61.1771697998047,0.001741790678352,-0.596607148647308,-0.021036980673671,1.706059629214E-05
1329,37.680663275205,4.52386331558228,0.007069495972246,9.78388023376465,-3.61152103778295E-08,0.001015045447275,9.08268702914938E-06,-17.4842796325684,61.1765747070313,0.001736831618473,-0.596602022647858,-0.02161754667759,1.70379607880022E-05
1330,37.6906632749815,0.083742342889309,0.000835991057102,9.83705425262451,7.1434448045693E-07,0.000357955752406,3.39423195327981E-06,-17.4272747039795,61.1759796142578,0.001734580961056,-0.596599996089935,-0.021822452545166,1.7446498532081E-05
1331,37.700663274758,4.54399251937866,0.007277324330062,9.78381061553955,2.54815063271963E-07,0.000983825651929,7.97897610027576E-06,-17.3698177337646,61.1753807067871,0.00172988884151,-0.596595525741577,-0.022382529452443,1.75907462107716E-05
1332,37.7106632745345,0.123869016766548,0.001252524671145,9.83665561676025,3.46880909773972E-07,0.000331923482008,1.11174713310902E-05,-17.3123474121094,61.1747779846191,0.001727867056616,-0.596589207649231,-0.022573774680495,1.77869860635838E-05
1333,37.7206632743109,4.54411745071411,0.007276398595423,9.78413486480713,1.39653582209576E-06,0.000950406945776,1.30432226796984E-05,-17.2544231414795,61.1741752624512,0.001723441993818,-0.596581697463989,-0.023113358765841,1.85841490747407E-05
1334,37.7306632740874,0.184406518936157,-0.038120336830616,9.83662796020508,1.34973652166082E-06,0.000302118685795,6.05303239353816E-06,-17.1964817047119,61.1735687255859,0.001721687265672,-0.596578121185303,-0.023297773674131,1.93560954357963E-05
1335,37.7406632738639,4.54382133483887,0.047273553907871,9.78408145904541,-8.43749035084329E-07,0.000913571333513,9.88027659332147E-06,-17.1380863189697,61.1729583740234,0.001717529259622,-0.596572577953339,-0.023816868662834,1.88703452295158E-05
1336,37.7506632736404,0.184522464871407,-0.038120467215777,9.83624458312988,-6.26940064307746E-08,0.000269656389719,1.35924137794063E-05,-17.0796718597412,61.1723480224609,0.001716003403999,-0.596564829349518,-0.023973962292075,1.88311569218058E-05
1337,37.7606632734169,4.56434869766235,0.007482646498829,9.78401851654053,1.97619442587893E-07,0.000876032048836,1.55362413352123E-05,-17.0208015441895,61.1717338562012,0.001712074270472,-0.596555888652802,-0.024472566321492,1.89406146091642E-05
1338,37.7706632731933,0.223796397447586,0.04229174181819,9.8362283706665,1.11142344394466E-06,0.000235927087488,8.83925622474635E-06,-16.9619083404541,61.1711158752441,0.001710777287371,-0.596550703048706,-0.024609170854092,1.95752654690295E-05
1339,37.7806632729698,4.58486890792847,-0.03230782225728,9.78357696533203,9.40177812935872E-07,0.000837308820337,1.45096691994695E-05,-16.9025592803955,61.1704978942871,0.001707038842142,-0.596542477607727,-0.025087283924222,2.01103466679342E-05
1340,37.7906632727463,0.22473132610321,-0.037703812122345,9.83622550964356,9.28597103211359E-07,0.000202196097234,1.78102327481611E-05,-16.8431873321533,61.1698760986328,0.001705932547338,-0.596532225608826,-0.025203397497535,2.06379500014009E-05
1341,37.8006632725228,4.58413457870483,0.047686226665974,9.7842960357666,4.16349308807185E-07,0.000798618013505,2.03111267182976E-05,-16.7833576202393,61.1692504882813,0.001702461158857,-0.596520662307739,-0.025661019608379,2.08713390748017E-05
1342,37.8106632722993,0.264390915632248,0.002710458589718,9.83544254302979,4.55492454420892E-07,0.000168177779415,1.3148541256669E-05,-16.7235012054443,61.1686248779297,0.001701545668766,-0.596520662307739,-0.025661019608379,2.08713390748017E-05
1343,37.8206632720758,4.58464193344116,0.007686992175877,9.78463649749756,-1.70135649568692E-07,0.000760059803724,1.80369133886416E-05,-16.6631889343262,61.1679954528809,0.001698303152807,-0.596502780914307,-0.026193773373962,2.10267571674194E-05
1344,37.8306632718522,0.254899173974991,-0.037391532212496,9.83506107330322,7.03515638633689E-07,0.00013485866657,2.17271481233183E-05,-16.6028480529785,61.167366027832,0.001697578351013,-0.596502780914307,-0.026193773373962,2.10267571674194E-05
1345,37.8406632716287,4.58472490310669,0.007685101591051,9.7845983505249,9.40717882258468E-07,0.000723092292901,2.29159122682177E-05,-16.5420513153076,61.1667327880859,0.001694526639767,-0.596477150917053,-0.026678716763854,2.19570811168523E-05
1346,37.8506632714052,0.314146161079407,0.043228793889284,9.83465194702148,8.59812132603111E-08,0.000103090816992,1.48220869959914E-05,-16.4812240600586,61.1660957336426,0.00169395445846,-0.596477150917053,-0.026678716763854,2.19570811168523E-05
1347,37.8606632711817,4.56521797180176,-0.032522514462471,9.78456974029541,3.58937114697255E-07,0.000687869556714,2.0769042748725E-05,-16.4199390411377,61.1654586791992,0.001691055251285,-0.59645676612854,-0.027122680097818,2.2202428226592E-05
1348,37.8706632709582,0.294640004634857,0.003022695891559,9.83503913879395,1.29202078369417E-07,7.23205230315216E-05,2.3081700419425E-05,-16.3586254119873,61.1648178100586,0.001690673758276,-0.59645676612854,-0.027122680097818,2.2202428226592E-05
1349,37.8806632707347,4.59487342834473,0.007785530760884,9.78414058685303,1.46558977576206E-06,0.000653112423606,2.54898168350337E-05,-16.2968559265137,61.1641731262207,0.001687927171588,-0.59642881155014,-0.027552980929613,2.31029189308174E-05
1350,37.8906632705111,0.314712643623352,0.003230898408219,9.83464527130127,-1.21081222914654E-06,4.2298597691115E-05,1.81190862349467E-05,-16.2350521087646,61.1635284423828,0.001687660231255,-0.59642881155014,-0.027552980929613,2.31029189308174E-05
1351,37.9006632702876,4.56535482406616,-0.032526444643736,9.78489017486572,8.82675465163629E-07,0.000619735626969,2.2111908037914E-05,-16.1727924346924,61.1628799438477,0.001685104332864,-0.596405863761902,-0.027914982289076,2.29037541430444E-05
1352,37.9106632700641,0.32435867190361,0.043332662433386,9.83387565612793,-9.0700268629007E-07,1.4024626580067E-05,2.50485900323838E-05,-16.110502243042,61.1622314453125,0.001684951712377,-0.596405863761902,-0.027914982289076,2.29037541430444E-05
1353,37.9206632698406,4.57541465759277,-0.032424744218588,9.78523826599121,6.24433141638292E-07,0.000589052098803,2.62449448200641E-05,-16.0477542877197,61.1615753173828,0.001682548434474,-0.596376299858093,-0.028276981785894,2.27274922508514E-05
1354,37.9306632696171,0.334419101476669,0.043436553329229,9.8338680267334,-1.96189446910466E-07,-1.18645502880099E-05,1.88315971172415E-05,-15.9849729537964,61.1609230041504,0.001682548434474,-0.596376299858093,-0.028276981785894,2.27274922508514E-05
1355,37.9406632693936,4.5554690361023,-0.032634701579809,9.78445816040039,8.03136856575293E-07,0.000559580570552,2.16822481888812E-05,-15.9217367172241,61.1602630615234,0.001680221525021,-0.596353113651276,-0.028591170907021,2.30638106586412E-05
1356,37.95066326917,0.354888468980789,0.003646807512268,9.83423900604248,-6.81448057093803E-07,-3.68512701243162E-05,1.78835980477743E-05,-15.8584651947021,61.1596031188965,0.001680335961282,-0.596353113651276,-0.028591170907021,2.30638106586412E-05
1357,37.9606632689465,4.54510164260864,0.007257449440658,9.78520584106445,-1.8686714611249E-06,0.00053152826149,1.19577243822278E-05,-15.7947406768799,61.1589393615723,0.001678199740127,-0.596336007118225,-0.028871208429337,2.15941727219615E-05
1358,37.970663268723,0.364935606718063,0.003750528208911,9.83347034454346,-2.04811499315838E-06,-5.97410835325718E-05,4.91479477204848E-06,-15.7309799194336,61.1582756042481,0.001678428612649,-0.596336007118225,-0.028871208429337,2.15941727219615E-05
1359,37.9806632684995,4.5451455116272,0.007256545126438,9.78442001342773,-1.36675305384415E-06,0.000504747324158,7.62395438869135E-06,-15.6667652130127,61.1576042175293,0.001676330575719,-0.596328854560852,-0.029130754992366,1.96339806279866E-05
1360,37.990663268276,0.354981273412705,0.003646070603281,9.83461761474609,-1.09185452856764E-06,-8.24075250420719E-05,1.12692487164168E-05,-15.6025142669678,61.1569366455078,0.001676711952314,-0.596328854560852,-0.029130754992366,1.96339806279866E-05
1361,38.0006632680524,4.53560018539429,-0.032846469432116,9.78402614593506,4.98368706303154E-07,0.000480826129206,1.16873206934542E-05,-15.5378122329712,61.1562614440918,0.001674728351645,-0.596315681934357,-0.029356151819229,1.92872266779887E-05
1362,38.0106632678289,0.384601652622223,0.043955989181995,9.83383655548096,2.47090326865873E-07,-0.000101845034806,5.97707821725635E-06,-15.4730710983276,61.1555900573731,0.00167514802888,-0.596315681934357,-0.029356151819229,1.92872266779887E-05
1363,38.0206632676054,4.50564002990723,-0.033159345388413,9.78478813171387,-1.22791917078757E-07,0.000457839778392,8.92816660780227E-06,-15.4078788757324,61.1549110412598,0.001673278748058,-0.596307158470154,-0.02957471832633,1.93540709005902E-05
1364,38.0306632673819,0.405054152011871,0.00416625617072,9.8334436416626,-6.88999875819718E-07,-0.000120741504361,1.02311159935198E-05,-15.3426485061646,61.1542320251465,0.001673774677329,-0.596307158470154,-0.02957471832633,1.93540709005902E-05
1365,38.0406632671584,4.49525308609009,0.006733333691955,9.78478145599365,-4.58045377627059E-07,0.000436583679402,1.13027863335446E-05,-15.2769689559937,61.1535491943359,0.001671981764957,-0.596294820308685,-0.029745472595096,1.86904999281978E-05
1366,38.0506632669349,0.404667168855667,0.044163890182972,9.83344173431397,2.58528132235369E-08,-0.00013796062558,5.56674831386772E-06,-15.2112483978271,61.1528663635254,0.001672553946264,-0.596294820308685,-0.029745472595096,1.86904999281978E-05
1367,38.0606632667113,4.48611354827881,-0.073367044329643,9.78515434265137,-7.50869105559104E-07,0.000417501927586,7.16334898243076E-06,-15.1450805664063,61.1521759033203,0.001670875470154,-0.596287548542023,-0.029902566224337,1.82712992682355E-05
1368,38.0706632664878,0.414693206548691,0.04426783695817,9.83267402648926,8.19991385014873E-07,-0.000154105262482,8.00814905232983E-06,-15.0788717269897,61.1514892578125,0.001671485835686,-0.596287548542023,-0.029902566224337,1.82712992682355E-05
1369,38.0806632662643,4.47530698776245,0.006523802876472,9.78514862060547,-9.17108707199077E-07,0.000399141281378,8.36995695863152E-06,-15.0122156143188,61.1507949829102,0.001669845543802,-0.596278131008148,-0.030052831396461,1.82107196451398E-05
1370,38.0906632660408,0.415135681629181,0.004269925877452,9.83343505859375,5.55779479327612E-07,-0.000168154278072,3.60758599526889E-06,-14.9455184936523,61.1501007080078,0.001670570345595,-0.596278131008148,-0.030052831396461,1.82107196451398E-05
1371,38.1006632658173,4.47574424743652,-0.033474497497082,9.78475666046143,-1.04119578736572E-06,0.000382238882594,5.78955723540275E-06,-14.8783750534058,61.1494026184082,0.001669006305747,-0.596272766590118,-0.03017577342689,1.79297949216561E-05
1372,38.1106632655938,0.404720932245255,0.044163469225168,9.83305835723877,-1.11573751837568E-06,-0.000181166542461,5.81384483666625E-06,-14.8111906051636,61.1487045288086,0.001669769291766,-0.596269309520721,-0.030059661716223,1.72887612279737E-05
1373,38.1206632653702,4.46576118469238,-0.033579226583243,9.78513431549072,-3.92191367382111E-07,0.000366412714357,5.82163738727104E-06,-14.7435607910156,61.1480026245117,0.001668281503953,-0.596266090869904,-0.030271396040917,1.70623025042005E-05
1374,38.1306632651467,0.415154039859772,0.004269574768841,9.83267307281494,-5.91010859807284E-07,-0.000192919673282,1.97275949176401E-06,-14.6758899688721,61.1472969055176,0.001669082557783,-0.596264839172363,-0.030162114650011,1.6723091903259E-05
1375,38.1406632649232,4.44536256790161,0.006210158579052,9.78513813018799,8.41732372691695E-08,0.000351830065483,3.88562966691097E-06,-14.6077747344971,61.1465911865234,0.00166763307061,-0.596262693405151,-0.030367018654943,1.67701200552983E-05
1376,38.1506632646997,0.435167014598846,0.004477674141526,9.83266067504883,-1.63034087563574E-07,-0.000204579439014,1.82606765974924E-06,-14.5396165847778,61.145881652832,0.001668472308666,-0.596261560916901,-0.030244076624513,1.66761656146264E-05
1377,38.1606632644762,4.43537569046021,0.006105790380389,9.78513717651367,-9.48433637404378E-07,0.000338360288879,2.41029533754045E-06,-14.4710149765015,61.1451683044434,0.001667060772888,-0.596260249614716,-0.030442152172327,1.61319785547676E-05
1378,38.1706632642526,0.425180643796921,0.004373470321298,9.83304786682129,-3.8365087107195E-07,-0.000213905033888,-5.30492968664476E-07,-14.4023723602295,61.1444549560547,0.001667976379395,-0.596260488033295,-0.030319208279252,1.59123483172152E-05
1379,38.1806632640291,4.4358024597168,-0.033892139792442,9.78475189208984,-5.29640828972333E-07,0.000326519802911,8.40903908283508E-07,-14.3332872390747,61.1437377929687,0.001666603027843,-0.596260130405426,-0.030503623187542,1.56086098286323E-05
1380,38.1906632638056,0.424773782491684,0.044371116906405,9.83304786682129,-1.39591850256693E-06,-0.000223028298933,-1.03720560673537E-06,-14.2641582489014,61.1430206298828,0.001667556702159,-0.596260607242584,-0.030373848974705,1.48091621667845E-05
1381,38.2006632635821,4.41581296920776,-0.034100249409676,9.78475856781006,2.95635089742063E-07,0.000315795710776,-1.98786733562883E-06,-14.1945896148682,61.1422996520996,0.001666221534833,-0.596261739730835,-0.030558263882995,1.49791194417048E-05
1382,38.2106632633586,0.455197602510452,0.004685390740633,9.8326473236084,-1.64811171998736E-06,-0.000232040358242,-8.28831434773747E-06,-14.1249752044678,61.1415748596191,0.00166717520915,-0.596266448497772,-0.030428491532803,1.40374095281004E-05
1383,38.2206632631351,4.38540601730347,0.005585985258222,9.78553485870361,5.67909168580627E-08,0.000305102323182,-8.67685048433486E-06,-14.0549240112305,61.1408500671387,0.001665916410275,-0.596271514892578,-0.030599245801568,1.40725451274193E-05
1384,38.2306632629115,0.454787194728851,0.044683255255222,9.8326473236084,-6.55031044516363E-07,-0.000239416593104,-1.10926548586576E-05,-13.9848260879517,61.1401214599609,0.001666946336627,-0.596277832984924,-0.030462641268969,1.37006209115498E-05
1385,38.240663262688,4.38624429702759,-0.074408866465092,9.78476810455322,-1.22147207548551E-06,0.000295954727335,-1.16893415906816E-05,-13.9142913818359,61.1393890380859,0.001665687537752,-0.596284568309784,-0.030633397400379,1.30044163597631E-05
1386,38.2506632624645,0.444793581962586,0.044578891247511,9.83265495300293,-2.95576819553389E-06,-0.000245772622293,-1.41976433951641E-05,-13.8437128067017,61.1386566162109,0.001666717464104,-0.596292614936829,-0.03049679286778,1.13152118501603E-05
1387,38.260663262241,4.37541580200195,0.005483664572239,9.7855339050293,-1.66548389302079E-07,0.000286958354991,-1.43560646392871E-05,-13.7726964950562,61.1379203796387,0.001665534917265,-0.596300899982452,-0.030653886497021,1.12241878014174E-05
1388,38.2706632620175,0.456043839454651,-0.075310580432415,9.83188533782959,-1.64329560448095E-06,-0.000252187426668,-1.5306613931898E-05,-13.7016353607178,61.1371765136719,0.001666564960033,-0.596309542655945,-0.030510453507304,1.02872854768066E-05
1389,38.280663261794,4.36458730697632,0.085376381874085,9.78744697570801,-3.94550916382741E-08,0.000279531261185,-1.4415259101952E-05,-13.6301383972168,61.1364326477051,0.001665573101491,-0.596317768096924,-0.030667547136545,1.02691255960963E-05
1390,38.2906632615704,0.456044137477875,-0.075310371816158,9.82806873321533,7.1327667683363E-07,-0.000257307867287,-1.59886294568423E-05,-13.5585975646973,61.1356887817383,0.001666412339546,-0.596326947212219,-0.030524114146829,1.06826983028441E-05
1391,38.3006632613469,4.34500885009766,0.045171689242125,9.78974723815918,-1.02629167031409E-06,0.000271513010375,-1.43688439493417E-05,-13.4866209030151,61.1349411010742,0.001665458665229,-0.596335232257843,-0.030688038095832,1.00990237115184E-05
1392,38.3106632611234,0.45562881231308,-0.035312451422215,9.82768535614014,5.81497943130671E-07,-0.000261508917902,-1.58239599841181E-05,-13.4145994186401,61.1341896057129,0.001666297903284,-0.596344292163849,-0.030530944466591,1.04370374174323E-05
1393,38.3206632608999,4.35542488098145,0.005279274191707,9.79012203216553,-2.95535841132732E-07,0.000264872214757,-1.42621547638555E-05,-13.3421430587769,61.133430480957,0.001665382296778,-0.596352398395538,-0.030688038095832,1.02720696304459E-05
1394,38.3306632606764,0.465211749076843,0.004789573606104,9.82730293273926,8.60176641026555E-08,-0.000265881302767,-1.38853829412255E-05,-13.2696418762207,61.1326751708984,0.001666221534833,-0.596360445022583,-0.030530944466591,1.03256261354545E-05
1395,38.3406632604529,4.31542730331421,0.004864010494202,9.7905216217041,-5.35922993094573E-07,0.000258560670773,-1.1812928278232E-05,-13.1967086791992,61.1319122314453,0.001665344228968,-0.596367180347443,-0.030688038095832,1.0022200513049E-05
1396,38.3506632602293,0.475626409053803,-0.03510406985879,9.82729625701904,4.9753361963667E-07,-0.000270230550086,-1.10194469016278E-05,-13.1237287521362,61.1311492919922,0.001666221534833,-0.596373558044434,-0.030524114146829,1.031060492096E-05
1397,38.3606632600058,4.30542373657227,0.004760794807225,9.79052925109863,1.33211230490815E-07,0.000253084872384,-7.70183578424621E-06,-13.0503187179565,61.1303825378418,0.001665382296778,-0.596377909183502,-0.030667547136545,1.0389317139925E-05
1398,38.3706632597823,0.474791377782822,0.04489178955555,9.82729816436768,1.13372902887932E-06,-0.00027326925192,-7.82680490374332E-06,-12.976861000061,61.1296195983887,0.001666297903284,-0.59638237953186,-0.030510453507304,1.10412684080075E-05
1399,38.3806632595588,4.30583763122559,-0.035236205905676,9.79015159606934,1.18226387257891E-06,0.000247294199653,-6.15060935160727E-06,-12.9029741287231,61.1288452148438,0.001665458665229,-0.596385955810547,-0.030653886497021,1.17205381684471E-05
1400,38.3906632593353,0.475205570459366,0.004894178826362,9.82767677307129,4.14416632565917E-07,-0.000275836355286,-7.07936715116375E-06,-12.8290405273438,61.1280746459961,0.001666412339546,-0.596390008926392,-0.03049679286778,1.19601409096504E-05
1401,38.4006632591118,4.29541873931885,0.004658160731196,9.78977680206299,9.45073338698421E-07,0.00024246769317,-4.28152179665631E-06,-12.754677772522,61.1273002624512,0.001665573101491,-0.596392452716827,-0.030633397400379,1.25029728224035E-05
1402,38.4106632588882,0.465201199054718,0.004790253005922,9.82730197906494,3.00324273894148E-07,-0.00027878236142,-4.18122135670274E-06,-12.6802682876587,61.126522064209,0.001666488591582,-0.596394836902618,-0.030469471588731,1.26762779473211E-05
1403,38.4206632586647,4.28541707992554,0.00455456553027,9.7905445098877,2.07572566068848E-06,0.000237319763983,-1.75911623045977E-06,-12.6054315567017,61.1257400512695,0.001665687537752,-0.59639585018158,-0.030619736760855,1.38661489472725E-05
1404,38.4306632584412,0.475615888834,-0.035103250294924,9.82729721069336,2.79377701417616E-07,-0.00027987229987,-6.6821723976318E-07,-12.5305480957031,61.1249580383301,0.001666641212069,-0.596396207809448,-0.030462641268969,1.40263882713043E-05
1405,38.4406632582177,4.25499773025513,0.044240217655897,9.79018211364746,1.40174813623162E-06,0.000233110011322,2.53606617661717E-06,-12.4552392959595,61.1241722106934,0.001665840158239,-0.596394777297974,-0.030592415481806,1.4828794519417E-05
1406,38.4506632579942,0.505608439445496,-0.034790769219399,9.82728099822998,1.06102686459053E-06,-0.000282034161501,3.01836098515196E-06,-12.3798799514771,61.1233863830566,0.001666793832555,-0.596393048763275,-0.030428491532803,1.54358003783273E-05
1407,38.4606632577706,4.22540998458862,0.003929965663701,9.79058074951172,1.42202566166816E-06,0.000229286873946,6.2947715377959E-06,-12.3040990829468,61.1225967407227,0.001666030846536,-0.596389472484589,-0.030558263882995,1.62486157933017E-05
1408,38.4706632575471,0.504770815372467,0.045205049216747,9.82690143585205,7.27274823475455E-07,-0.000283780827885,5.79046491111512E-06,-12.2282676696777,61.1218070983887,0.001666984520853,-0.596386134624481,-0.030401170253754,1.66635818459326E-05
1409,38.4806632573236,4.23581981658936,-0.035964213311672,9.79057788848877,9.42972860684677E-07,0.000225604875595,8.15359453554265E-06,-12.1520137786865,61.1210098266602,0.001666221534833,-0.596381425857544,-0.030524114146829,1.72013587871334E-05
1410,38.4906632571001,0.505181133747101,0.005207280162722,9.82651901245117,5.74612499804061E-07,-0.000284638255835,8.5702713477076E-06,-12.0757102966309,61.1202125549316,0.001667137141339,-0.596376538276672,-0.030367018654943,1.75279856193811E-05
1411,38.5006632568766,4.2054009437561,0.00372059061192,9.79097843170166,2.84559092733616E-07,0.000221843860345,1.16962646643515E-05,-11.9989852905273,61.1194114685059,0.00166637415532,-0.596369743347168,-0.03049679286778,1.76874564203899E-05
1412,38.5106632566531,0.505589663982391,-0.034791588783264,9.82728004455566,-1.42434273584513E-05,-0.000286221940769,-7.83105497248471E-05,-11.9222116470337,61.1186103820801,0.001667366013862,-0.596414685249329,-0.030319208279252,9.55038103711559E-06
1413,38.5206632564295,4.21497440338135,0.043829970061779,9.78983592987061,-2.72176876023877E-05,0.000218429908273,-0.000170396029716,-11.8450164794922,61.117805480957,0.001666564960033,-0.59651243686676,-0.030442152172327,-1.30275529947044E-11
1414,38.530663256206,0.495583474636078,-0.034900613129139,9.82766723632813,-2.77606632153038E-05,-0.000287063070573,-0.000224826362683,-11.7677736282349,61.117000579834,0.001667556702159,-0.59664124250412,-0.030278226360679,-3.05176035908516E-05
1415,38.5406632559825,4.18496894836426,0.043533891439438,9.79061603546143,-3.39351572620217E-05,0.000216268643271,-0.000288889772492,-11.6901111602783,61.1161918640137,0.001666831900366,-0.596806704998016,-0.030401170253754,-3.05175890389364E-05
1416,38.550663255759,0.525574207305908,-0.034590285271406,9.82612609863281,-2.95596328214742E-05,-0.000287309434498,-0.000319875427522,-11.6123971939087,61.1153793334961,0.001667747506872,-0.596990048885345,-0.030237246304751,-6.1035138060106E-05
1417,38.5606632555355,4.17579746246338,-0.03654270619154,9.79138374328613,-2.9832539439667E-05,0.0002132478985,-0.000361545709893,-11.5342664718628,61.114559173584,0.001667022705078,-0.597197413444519,-0.030367018654943,-6.10351526120212E-05
1418,38.570663255312,0.505154252052307,0.00519759580493,9.82690334320068,-2.38183401961578E-05,-0.000288008217467,-0.000372700975277,-11.4560852050781,61.1137390136719,0.001668014447205,-0.59741073846817,-0.030209925025702,-9.15527416509576E-05
1419,38.5806632550884,4.16537237167358,0.003377712331712,9.79025077819824,-2.24286959564779E-05,0.000210174417589,-0.000397551455535,-11.3774871826172,61.1129150390625,0.001667251577601,-0.597638666629791,-0.030319208279252,-9.1552734375E-05
1420,38.5906632548649,0.524725198745728,0.045402847230435,9.8268928527832,-1.640223308641E-05,-0.000288412411464,-0.000397125462769,-11.2988386154175,61.1120948791504,0.001668205251917,-0.597866356372833,-0.030148454010487,-0.000122070290672
1421,38.6006632546414,4.15619993209839,-0.076693847775459,9.79101943969727,-1.40239208121784E-05,0.000207842531381,-0.000412309425883,-11.2197751998901,61.1112632751465,0.001667480450124,-0.598102390766144,-0.030271396040917,-0.000122070290672
1422,38.6106632544179,0.514719486236572,0.045302659273148,9.8268985748291,-9.38528683036566E-06,-0.000288374285446,-0.000402865902288,-11.1406602859497,61.1104316711426,0.001668472308666,-0.598333299160004,-0.030114302411676,-0.000122070290672
1423,38.6206632541944,4.1257758140564,-0.036975651979447,9.7902774810791,-8.78637456480647E-06,0.000205626405659,-0.000410949025536,-11.0611324310303,61.1096000671387,0.001667709322646,-0.598568797111511,-0.030223585665226,-0.000122070305224
1424,38.6306632539709,0.534710049629211,0.045515783131123,9.82955837249756,-5.74242721995688E-06,-0.000288546929369,-0.000397262949264,-10.9815521240234,61.1087684631348,0.001668930053711,-0.598796427249908,-0.030059661716223,-0.00012207027612
1425,38.6406632537473,4.13576650619507,-0.036838371306658,9.78798675537109,-4.30434693043935E-06,0.000202785857255,-0.000397004216211,-10.9015598297119,61.1079292297363,0.001668167067692,-0.599023759365082,-0.03017577342689,-0.0001220703125
1426,38.6506632535238,0.525120198726654,0.005417526699603,9.82689380645752,-2.61281570601568E-07,-0.000288549665129,-0.000383485486964,-10.821515083313,61.1070899963379,0.001669120742008,-0.599243640899658,-0.030018679797649,-0.0001220703125
1427,38.6606632533003,4.10534238815308,0.002876993501559,9.79182147979736,-8.9558704985393E-07,0.000200594426133,-0.00037768878974,-10.7410593032837,61.1062431335449,0.001668472308666,-0.599459826946258,-0.030121132731438,-0.00012207027612
1428,38.6706632530768,0.534689605236053,0.045523840934038,9.825364112854,2.57476949627744E-06,-0.00028805815964,-0.00036214402644,-10.660551071167,61.1054039001465,0.001669387798756,-0.599667429924011,-0.029957208782435,-0.000122070305224
1429,38.6806632528533,4.10575437545776,-0.037091411650181,9.79220485687256,1.58182706400112E-06,0.000198575959075,-0.000354750955012,-10.5796337127686,61.1045532226563,0.001668739248998,-0.599870681762695,-0.030080150812864,-0.000122070305224
1430,38.6906632526297,0.535101115703583,0.005529687739909,9.825364112854,5.39731536264299E-06,-0.000287912058411,-0.000334455718985,-10.4986629486084,61.1037063598633,0.001669654855505,-0.600062251091003,-0.029923057183623,-0.000122070290672
1431,38.7006632524062,4.07574558258057,-0.037378642708063,9.79222679138184,4.65393304693862E-06,0.000196545966901,-0.000325685017742,-10.4172849655151,61.1028518676758,0.001669006305747,-0.600248754024506,-0.030018679797649,-0.00012207027612
1432,38.7106632521827,0.544672250747681,0.045635629445315,9.82573890686035,7.71011309552705E-06,-0.000287842878606,-0.00030675707967,-10.3358526229858,61.1020011901856,0.001669959980063,-0.600424528121948,-0.029861586168408,-0.000122070290672
1433,38.7206632519592,4.06910085678101,-0.357374399900436,9.79147052764893,-0.000454661756521,0.000194789739908,-0.002969499211758,-10.2540149688721,61.1011085510254,0.001669273362495,-0.602125942707062,-0.029964039102197,-0.000366210879292
1434,38.7306632517357,0.544660091400147,0.045590046793223,9.82802677154541,-0.000365757150576,-0.000286891328869,-0.003135805716738,-10.1721229553223,61.1002197265625,0.001670417725109,-0.603922426700592,-0.029800113290548,-0.000579833926167
1435,38.7406632515122,4.0665774345398,-0.117188356816769,9.78804206848145,-0.000327139685396,0.00019290833734,-0.003439763560891,-10.089825630188,61.0993156433105,0.001669578487054,-0.60589337348938,-0.029923057183623,-0.00076293933671
1436,38.7506632512886,0.535074830055237,0.005466257687658,9.82803153991699,-0.000256596424151,-0.000286886381218,-0.003536112373695,-10.0074739456177,61.0984115600586,0.001670570345595,-0.607919633388519,-0.029765963554382,-0.00091552734375
1437,38.7606632510651,4.05530023574829,0.002945879939944,9.79186725616455,-0.000226476578973,0.000191148836166,-0.003715028753504,-9.92471790313721,61.0975036621094,0.001669959980063,-0.610047996044159,-0.029861586168408,-0.001037597307004
1438,38.7706632508416,0.545916855335236,-0.074419818818569,9.82573986053467,-0.000158809474669,-0.000285972462734,-0.003665745491162,-9.8419075012207,61.0965843200684,0.001670951838605,-0.612148642539978,-0.02969766035676,-0.00112915027421
1439,38.7806632506181,4.02529001235962,0.002893205499277,9.78997707366943,-0.000137937488034,0.000189717582543,-0.003746080677956,-9.75869560241699,61.0956687927246,0.00167015066836,-0.61429500579834,-0.029800113290548,-0.001220702892169
1440,38.7906632503946,0.575911223888397,-0.074078090488911,9.82801246643066,-8.3775470557157E-05,-0.000285217363853,-0.003645783523098,-9.67542743682861,61.0947380065918,0.001671180711128,-0.616383790969849,-0.029636189341545,-0.001251220353879
1441,38.8006632501711,3.9948513507843,0.04284518584609,9.79152679443359,-7.15975038474426E-05,0.000187589001143,-0.00366265932098,-9.59175872802734,61.0938110351563,0.001670570345595,-0.618482530117035,-0.029745472595096,-0.001312255859375
1442,38.8106632499475,0.565473616123199,-0.034158159047365,9.8261137008667,-3.04916920867981E-05,-0.000285124406219,-0.003519967198372,-9.50803470611572,61.0928802490234,0.001671600271948,-0.620499014854431,-0.029581546783447,-0.001312255859375
1443,38.820663249724,4.00570869445801,-0.036766905337572,9.79152011871338,-2.47642037720652E-05,0.000186776436749,-0.003492228221148,-9.42391014099121,61.0919380187988,0.001670989906415,-0.622500002384186,-0.02969766035676,-0.001342773321085
1444,38.8306632495005,0.575031161308289,0.005981476511806,9.82381916046143,8.49770367494784E-06,-0.000284456182271,-0.003327022772282,-9.33973026275635,61.0909996032715,0.00167179107666,-0.624406337738037,-0.029540566727519,-0.001342773321085
1445,38.840663249277,3.98570370674133,-0.036716561764479,9.7953519821167,1.01950936368667E-05,0.000185370197869,-0.003267810679972,-9.25515079498291,61.0900535583496,0.001671333331615,-0.626278340816498,-0.029636189341545,-0.00131225574296
1446,38.8506632490535,0.565459370613098,-0.034084245562554,9.82382583618164,3.53582872776315E-05,-0.000282965454971,-0.003092746017501,-9.17051601409912,61.0890998840332,0.001672287005931,-0.628050684928894,-0.029479095712304,-0.00131225574296
1447,38.86066324883,3.96525502204895,0.003310602158308,9.79193210601807,2.77559993264731E-05,0.000183438678505,-0.003039662027732,-9.08548545837402,61.0881423950195,0.001671638456173,-0.629792153835297,-0.02957471832633,-0.00128173828125
1448,38.8706632486064,0.575010120868683,0.006066998932511,9.82534790039063,5.10950121679343E-05,-0.000282591819996,-0.002856368897483,-9.00039672851563,61.0871849060059,0.001672553946264,-0.631428718566895,-0.029417622834444,-0.001251220470294
1449,38.8806632483829,3.97568845748901,-0.036343768239021,9.794602394104,4.72192296001595E-05,0.000182406627573,-0.002757891314104,-8.91491222381592,61.0862236022949,0.001672134385444,-0.63300883769989,-0.029520075768232,-0.001220703008585
1450,38.8906632481594,0.564554572105408,0.045994810760021,9.82077503204346,6.61270969430916E-05,-0.000281344342511,-0.002582382876426,-8.82937049865723,61.085262298584,0.001672821003012,-0.634488761425018,-0.029356151819229,-0.001190185314044
1451,38.9006632479359,3.95568466186523,-0.036354292184115,9.79728507995606,5.98768820054829E-05,0.000180587652721,-0.002481220057234,-8.74343490600586,61.0842971801758,0.001672439510003,-0.635910332202911,-0.029479095712304,-0.001159667852335
1452,38.9106632477124,0.575877904891968,-0.0738440528512,9.82267570495606,7.0799287641421E-05,-0.000280635198578,-0.002316721016541,-8.65744209289551,61.0833206176758,0.001673355116509,-0.637237429618835,-0.029301509261131,-0.0010986328125
1453,38.9206632474888,3.92478346824646,0.043501105159521,9.7923469543457,6.42493178020231E-05,0.000179284470505,-0.00221268623136,-8.5710563659668,61.0823440551758,0.001672706566751,-0.638505339622498,-0.029410792514682,-0.00106811511796
1454,38.9306632472653,0.60542619228363,-0.033476736396551,9.82609748840332,7.22160912118852E-05,-0.000279610714642,-0.002073767827824,-8.48461246490479,61.0813598632813,0.001673698425293,-0.63969349861145,-0.029253698885441,-0.001037597539835
1455,38.9406632470418,3.90656280517578,-0.116516850888729,9.79121112823486,-0.000121441451483,0.000177688954864,-0.003056977177039,-8.39777660369873,61.0803642272949,0.00167301169131,-0.641444981098175,-0.029349321499467,-0.001098632696085
1456,38.9506632468183,0.59586775302887,-0.073577724397183,9.8261022567749,-0.000190948907402,-0.000279209780274,-0.003639856819063,-8.31088256835938,61.0793647766113,0.001673965365626,-0.643530428409576,-0.029192226007581,-0.001220702775754
1457,38.9606632465948,3.89611172676086,-0.076364554464817,9.79274940490723,-0.000260500441073,0.000176833273144,-0.004288950003684,-8.22359943389893,61.0783500671387,0.001673393184319,-0.645987808704376,-0.029287848621607,-0.001342773321085
1458,38.9706632463713,0.610861957073212,-0.073402404785156,9.82456588745117,-0.000247468880843,-0.000277825747617,-0.004609835799783,-8.13625621795654,61.0773239135742,0.001674308790825,-0.648628830909729,-0.029130754992366,-0.001495361095294
1459,38.9806632461477,3.87656474113464,-0.116267085075378,9.79276180267334,-0.000259465392446,0.000175525230588,-0.005013142246753,-8.0485258102417,61.0762825012207,0.001673698425293,-0.651501536369324,-0.029226377606392,-0.00164794921875
1460,38.9906632459242,0.610401928424835,-0.033390901982784,9.82456779479981,-0.000205936026759,-0.000277155108051,-0.005088819656521,-7.96073484420776,61.0752372741699,0.001674575731158,-0.654416978359222,-0.029069283977151,-0.001770019414835
1461,39.0006632457007,3.86565065383911,-0.036020964384079,9.79391860961914,-0.000198693349375,0.000173083128175,-0.005312344525009,-7.87255764007568,61.0741882324219,0.001674041734077,-0.657460868358612,-0.029171736910939,-0.001861572265625
1462,39.0106632454772,0.615855932235718,-0.073298007249832,9.82494640350342,-0.000138735718792,-0.000276230915915,-0.005260231439024,-7.78431987762451,61.073127746582,0.001675033476204,-0.66047465801239,-0.029007811099291,-0.001953124650754
1463,39.0206632452537,3.85018110275269,0.004188389051706,9.79240608215332,-0.000135982772917,0.000172734478838,-0.005406016949564,-7.69569730758667,61.0720634460449,0.001674461294897,-0.663572132587433,-0.029110264033079,-0.00201416015625
1464,39.0306632450302,0.620389997959137,-0.033198285847902,9.82303714752197,-7.62966010370292E-05,-0.000275289290585,-0.005254404619336,-7.60701322555542,61.0709953308106,0.001675224280916,-0.666582643985748,-0.028966831043363,-0.002075194846839
1465,39.0406632448066,3.84064173698425,-0.035535804927349,9.79508113861084,-7.45009965612553E-05,0.000170934916241,-0.005295506678522,-7.51794576644897,61.0699195861816,0.00167469016742,-0.669617116451263,-0.029062453657389,-0.002105712657794
1466,39.0506632445831,0.620852768421173,-0.073136925697327,9.82380199432373,-1.87300265679369E-05,-0.000273368466878,-0.005080870818347,-7.42881679534912,61.0688362121582,0.0016755675897,-0.672528266906738,-0.028905358165503,-0.002105712424964
1467,39.0606632443596,3.82016468048096,0.004608898889273,9.79509735107422,-1.94296244444558E-05,0.000169786857441,-0.005047199781984,-7.33930635452271,61.0677490234375,0.00167514802888,-0.675419807434082,-0.029000980779529,-0.002136230235919
1468,39.0706632441361,0.625375032424927,-0.03301988914609,9.82265663146973,2.8474212740548E-05,-0.000273214682238,-0.004795499611646,-7.24973392486572,61.0666542053223,0.001676025334746,-0.678167402744293,-0.028843887150288,-0.002105712424964
1469,39.0806632439126,3.81562829017639,-0.03508147969842,9.79319477081299,3.05268586089369E-05,0.000168625105289,-0.004664609674364,-7.15978002548218,61.0655555725098,0.001675414969213,-0.680840075016022,-0.028939509764314,-0.002105712424964
1470,39.0906632436891,0.625367403030396,-0.03295324370265,9.8249454498291,6.71002271701582E-05,-0.000271653756499,-0.00440382398665,-7.06976509094238,61.064453125,0.001676330575719,-0.683363318443298,-0.028775585815311,-0.002044677501544
1471,39.1006632434655,3.80514192581177,0.005141406320035,9.79320526123047,6.58967474009842E-05,0.000167764155776,-0.004250769037753,-6.97936916351318,61.0633430480957,0.001675758277997,-0.685798645019531,-0.028871208429337,-0.00201416015625
1472,39.110663243242,0.629878640174866,0.007170763332397,9.82456493377686,9.19300655368716E-05,-0.00027012071223,-0.003991039004177,-6.88891172409058,61.0622367858887,0.001676673884504,-0.688085436820984,-0.028714112937451,-0.001953125
1473,39.1206632430185,3.79061365127563,-0.034722290933132,9.79321765899658,8.02028152975254E-05,0.000166551049915,-0.0038628350012,-6.79807472229004,61.0611152648926,0.001676101703197,-0.690298736095428,-0.028809735551477,-0.00192260730546
1474,39.130663242795,0.627774059772491,-0.232828572392464,9.82493782043457,-0.00024611572735,-0.000269467214821,-0.005627626553178,-6.70717620849609,61.0599784851074,0.001677055377513,-0.693523287773132,-0.028659472241998,-0.002044677501544
1475,39.1406632425715,3.77658224105835,-0.11451031267643,9.79246044158936,-0.00023601380235,0.000164681769093,-0.00587371038273,-6.61590051651001,61.0588226318359,0.001676445011981,-0.696888566017151,-0.028755094856024,-0.002197265625
1476,39.1506632423479,0.634856939315796,0.007306795101613,9.82494354248047,-0.000168543672771,-0.000268936826615,-0.005837600678205,-6.5245623588562,61.0576629638672,0.001677360502072,-0.700233280658722,-0.028598001226783,-0.002288817893714
1477,39.1606632421244,3.76609516143799,-0.07422287017107,9.79361534118652,-0.000153649089043,0.000163187898579,-0.005951064638793,-6.43284797668457,61.0564994812012,0.001676826388575,-0.703642785549164,-0.028693623840809,-0.002380370860919
1478,39.1706632419009,0.640340685844421,-0.032574936747551,9.82417869567871,-9.80592594714835E-05,-0.000267580966465,-0.005863955710083,-6.34106969833374,61.0553245544434,0.001677741995081,-0.707002580165863,-0.02855701930821,-0.002410887973383
1479,39.1806632416774,3.75609374046326,-0.07392181456089,9.79286193847656,-8.26050745672546E-05,0.000161438598298,-0.005851017311215,-6.24891710281372,61.0541458129883,0.001677131629549,-0.710355281829834,-0.028632150962949,-0.002471923362464
1480,39.1906632414539,0.63433837890625,0.0474190749228,9.82532978057861,-2.39549626712687E-05,-0.000265864509856,-0.005637118127197,-6.15670108795166,61.0529632568359,0.001678085303865,-0.713585078716278,-0.028488717973232,-0.002471923595294
1481,39.2006632412304,3.73609566688538,-0.073757417500019,9.79325580596924,-1.60257186507806E-05,0.000161160613061,-0.005554574076086,-6.06411170959473,61.0517692565918,0.001677551190369,-0.71676766872406,-0.028584340587258,-0.002502441173419
1482,39.2106632410068,0.650325775146484,-0.032317768782377,9.82379341125488,2.99284020002233E-05,-0.000265138951363,-0.005302148405463,-5.97145843505859,61.0505752563477,0.001678428612649,-0.719805419445038,-0.028427245095372,-0.002471923129633
1483,39.2206632407833,3.71559000015259,-0.03361177444458,9.79441738128662,3.35147160512861E-05,0.000159435468959,-0.00517041515559,-5.87843370437622,61.0493698120117,0.001677932683378,-0.722767651081085,-0.028522867709398,-0.002441405551508
1484,39.2306632405598,0.660317599773407,-0.032115679234266,9.8237886428833,6.90827073412947E-05,-0.00026375654852,-0.004898933228105,-5.78534412384033,61.0481643676758,0.001678848173469,-0.725574612617493,-0.028365774080157,-0.002410888206214
1485,39.2406632403363,3.70558214187622,-0.033370822668076,9.79175758361816,6.87114952597767E-05,0.000158766823006,-0.004735382739455,-5.69188404083252,61.0469474792481,0.001678123488091,-0.728287816047668,-0.028461396694183,-0.00238037109375
1486,39.2506632401128,0.649802625179291,0.007829309441149,9.82799053192139,9.87702733254992E-05,-0.000262296496658,-0.004459143616259,-5.59835910797119,61.0457305908203,0.001679229666479,-0.730842709541321,-0.028304303064942,-0.002319335704669
1487,39.2606632398893,3.70057368278503,-0.033090591430664,9.79100131988525,9.37715449254029E-05,0.000157371017849,-0.004277860280126,-5.50446510314941,61.0445060729981,0.001678619300947,-0.733293771743774,-0.028393095359206,-0.002258300082758
1488,39.2706632396657,0.66530179977417,-0.03190029412508,9.82416820526123,0.000115638242278,-0.000261608103756,-0.00400842865929,-5.41050529479981,61.0432815551758,0.001679458539002,-0.735590398311615,-0.028242830187082,-0.002197265392169
1489,39.2806632394422,3.67556929588318,-0.033101119101048,9.79444980621338,0.000102464960946,0.000156743728439,-0.003856429364532,-5.31617832183838,61.0420455932617,0.00167892454192,-0.737799942493439,-0.028331622481346,-0.002136230235919
1490,39.2906632392187,0.665293455123901,-0.031824700534344,9.8237886428833,0.000115463997645,-0.000260185974184,-0.003625340992585,-5.22178506851196,61.0408058166504,0.001679801847786,-0.739877343177795,-0.028181359171867,-0.002044677501544
1491,39.3006632389952,3.66452598571777,0.047047637403011,9.79446125030518,0.000110690583824,0.000154993089382,-0.003426135051996,-5.12702608108521,61.0395622253418,0.00167930603493,-0.741840362548828,-0.028270151466131,-0.001983642112464
1492,39.3106632387717,0.67528760433197,-0.031630370765925,9.82378482818604,0.000126127473777,-0.000258406362263,-0.003177047241479,-5.0322003364563,61.0383186340332,0.001680221525021,-0.7436603307724,-0.028140377253294,-0.001922607072629
1493,39.3206632385481,3.64899492263794,0.08708318322897,9.79294872283936,0.000251735851634,0.000154322420713,-0.002215995220467,-4.93701028823853,61.0370788574219,0.001679611159489,-0.744930565357208,-0.028215510770679,-0.001770019414835
1494,39.3306632383246,0.675278961658478,-0.031555589288473,9.82492923736572,0.000238627006183,-0.00025761561119,-0.001918450579979,-4.84175205230713,61.0358352661133,0.001680526649579,-0.746029555797577,-0.028078906238079,-0.001647948985919
1495,39.3406632381011,3.63502550125122,0.007066002115607,9.79333877563477,0.000220218047616,0.000152253167471,-0.001645231153816,-4.74613189697266,61.0345878601074,0.001679954468273,-0.7469722032547,-0.028154037892819,-0.001525878789835
1496,39.3506632378776,0.684744238853455,0.008633953519166,9.82263660430908,0.000205029005883,-0.000256228377111,-0.001415307284333,-4.65044355392456,61.0333366394043,0.001680679270066,-0.747783303260803,-0.028010604903102,-0.001403808477335
1497,39.3606632376541,3.61554288864136,-0.03305496647954,9.79640293121338,0.000184586227988,0.000151584885316,-0.001206855638884,-4.55439424514771,61.0320854187012,0.001680221525021,-0.748474895954132,-0.028106227517128,-0.001281738164835
1498,39.3706632374306,0.689210653305054,0.048747636377812,9.82378196716309,0.000171763327671,-0.000254770333413,-0.001019173418172,-4.45827579498291,61.0308303833008,0.001681175199337,-0.749058783054352,-0.027949132025242,-0.00119018566329
1499,39.380663237207,3.6065788269043,-0.11308030039072,9.7929744720459,0.000158167284098,0.000149815765326,-0.000843832676765,-4.36179780960083,61.0295639038086,0.001680603018031,-0.749542236328125,-0.028044754639268,-0.001098632696085
1500,39.3906632369835,0.693676352500916,0.088851608335972,9.82568836212158,0.000143371958984,-0.000253643112956,-0.000704295525793,-4.26525115966797,61.0283050537109,0.001681632944383,-0.74994558095932,-0.027887661010027,-0.00100708019454
1501,39.40066323676,3.5855233669281,-0.033277206122875,9.79222679138184,0.000132646877319,0.000149159299326,-0.000566264556255,-4.16834592819214,61.0270347595215,0.001681060763076,-0.750269889831543,-0.027983283624053,-0.000946044747252
1502,39.4106632365365,0.701686143875122,0.048981312662363,9.8237771987915,0.000121017088532,-0.000252505880781,-0.000459653936559,-4.07137107849121,61.0257682800293,0.001681900001131,-0.750533401966095,-0.02781935967505,-0.000885009707417
1503,39.420663236313,3.57603812217712,-0.073349699378014,9.79452514648438,0.00011230941891,0.000148174352944,-0.000351805647369,-3.97403955459595,61.0244941711426,0.001681365887634,-0.750734865665436,-0.027914982289076,-0.00079345703125
1504,39.4306632360895,0.699175119400024,0.048973817378283,9.82301425933838,0.000101976365841,-0.000250993063673,-0.000269173615379,-3.87663817405701,61.0232200622559,0.001682167057879,-0.750889241695404,-0.02775788679719,-0.000762939453125
1505,39.4406632358659,3.56248116493225,0.006511514540762,9.79568195343018,9.29422894841991E-05,0.000146459060488,-0.00018668937264,-3.77888107299805,61.0219459533691,0.001681709196419,-0.750996172428131,-0.027853509411216,-0.000701904296875
1506,39.4506632356424,0.712711811065674,-0.030832335352898,9.82262802124023,8.56734404806048E-05,-0.000250195007538,-0.000128118219436,-3.68105340003967,61.0206680297852,0.001682548434474,-0.75106954574585,-0.027696415781975,-0.000640869140625
1507,39.4606632354189,3.54245543479919,0.006264352239668,9.79493618011475,7.81223352532834E-05,0.000145091544255,-6.78182623232715E-05,-3.58287191390991,61.0193824768066,0.001682052621618,-0.75106954574585,-0.027696415781975,-0.000640869140625
1508,39.4706632351954,0.714687466621399,0.009196992963552,9.82300853729248,7.20648022252135E-05,-0.000248670869041,-2.89647214231081E-05,-3.48461937904358,61.0181007385254,0.001682891859673,-0.75106954574585,-0.027696415781975,-0.000640869140625
1509,39.4806632349719,3.52996230125427,0.006124343257397,9.79494285583496,6.75840055919252E-05,0.000143740602653,1.26863978948677E-05,-3.38601422309875,61.0168113708496,0.001682395930402,-0.751117944717407,-0.027730567380786,-0.000518798828125
1510,39.4906632347484,0.719669461250305,0.009288998320699,9.82300472259522,6.21637154836208E-05,-0.000247479008976,4.15493304899428E-05,-3.28733777999878,61.0155220031738,0.001683235168457,-0.751093983650208,-0.027593962848187,-0.00048828125
1511,39.5006632345248,3.51796460151672,-0.034032337367535,9.79495716094971,5.67734605283476E-05,0.000143128476338,7.22100958228111E-05,-3.18831014633179,61.0142288208008,0.001682739239186,-0.751093983650208,-0.027593962848187,-0.00048828125
1512,39.5106632343013,0.725269436836243,0.729498147964478,9.82299995422363,0.001204631640576,-0.000245599512709,0.006800577044487,-3.08920955657959,61.0130004882813,0.001683578477241,-0.747156143188477,-0.027532491832972,0.000234620441915
1513,39.5206632340778,3.49537086486816,0.165399163961411,9.79572772979736,0.001145423273556,0.000140694552101,0.008154816925526,-2.98975944519043,61.0117912292481,0.001683158800006,-0.742483854293823,-0.027600793167949,0.000888652342837
1514,39.5306632338543,0.729134440422058,0.049575068056584,9.82185649871826,0.000979231321253,-0.000245820236159,0.008907033130527,-2.8902370929718,61.0105857849121,0.001683959970251,-0.73738032579422,-0.027471018955112,0.001447257818654
1515,39.5406632336308,3.48437285423279,0.244792610406876,9.79573059082031,0.00091199146118,0.000138896954013,0.009905751794577,-2.79036617279053,61.009391784668,0.00168350210879,-0.731705009937286,-0.027552980929613,0.001967065501958
1516,39.5506632334072,0.736633539199829,0.049685467034578,9.82261753082275,0.000737480120733,-0.000244337570621,0.010207663290203,-2.69042229652405,61.0082130432129,0.001684341346845,-0.725856423377991,-0.027409547939897,0.002386805135757
1517,39.5606632331837,3.46342253684998,0.123925678431988,9.79498100280762,0.000670093228109,0.000137664712383,0.010790179483593,-2.59013199806213,61.0070343017578,0.001683845533989,-0.719674229621887,-0.027491509914398,0.002767778700218
1518,39.5706632329602,0.749132692813873,0.049797959625721,9.82261276245117,0.000507638789713,-0.000243295013206,0.010773898102343,-2.4897677898407,61.0058631896973,0.001684646587819,-0.713501155376434,-0.027348075062037,0.003055680310354
1519,39.5806632327367,3.45143461227417,0.083114683628082,9.79537296295166,0.000434658839367,0.000137349794386,0.010940318927169,-2.38905835151672,61.004695892334,0.001684150658548,-0.707232594490051,-0.027436869218946,0.003301724791527
