frame,timestamp,x,y,z,qw,qx,qy,qz,v_x (m/s),v_y (m/s),v_z (m/s),w_x (rad/s),w_y (rad/s),w_z (rad/s),acc x (m/s^2),acc y (m/s^2),acc z (m/s^2)
873,0.0,0.0,0.0,0.0,1.0,0.0,0.0,0.0,0.0,0.0,0.0,-0.002153,0.020744,0.075806,-0.013337,0.103464,0.093086
874,10000000.0,0.0,0.0,0.0,1.0,0.0,0.0,0.0,0.0,0.0,0.0,-0.002153,0.020744,0.075806,-0.013337,0.103464,0.093086
875,20000000.0,0.0,0.0,0.0,1.0,0.0,0.0,0.0,0.0,0.0,0.0,-0.002153,0.020744,0.075806,-0.013337,0.103464,0.093086
876,30000000.0,0.0,0.0,0.0,1.0,0.0,0.0,0.0,0.0,0.0,0.0,-0.002153,0.020744,0.075806,-0.013337,0.103464,0.093086
877,40000000.0,0.0,0.0,0.0,1.0,0.0,0.0,0.0,0.0,0.0,0.0,-0.002153,0.020744,0.075806,-0.013337,0.103464,0.093086
878,50000000.0,0.0,0.0,0.0,1.0,0.0,0.0,0.0,0.0,0.0,0.0,-0.002153,0.020744,0.075806,-0.013337,0.103464,0.093086
879,60000000.0,0.0,0.0,0.0,1.0,0.0,0.0,0.0,0.0,0.0,0.0,-0.002153,0.020744,0.075806,-0.013337,0.103464,0.093086
880,70000000.0,0.0,0.0,0.0,1.0,0.0,0.0,0.0,0.0,0.0,0.0,-0.002153,0.020744,0.075806,-0.013337,0.103464,0.093086
881,80000000.0,0.0,0.0,0.0,1.0,0.0,0.0,0.0,0.0,0.0,0.0,-0.002153,0.020744,0.075806,-0.013337,0.103464,0.093086
882,90000000.0,0.0,0.0,0.0,1.0,0.0,0.0,0.0,0.0,0.0,0.0,-0.002153,0.020744,0.075806,-0.013337,0.103464,0.093086
883,100000000.0,0.0,0.0,0.0,1.0,0.0,0.0,0.0,0.0,0.0,0.0,-0.002153,0.020744,0.075806,-0.013337,0.103464,0.093086
884,110000000.0,0.0,0.0,0.0,1.0,0.0,0.0,0.0,0.0,0.0,0.0,-0.002153,0.020744,0.075806,-0.013337,0.103464,0.093086
885,120000000.0,0.0,0.0,0.0,1.0,0.0,0.0,0.0,0.0,0.0,0.0,-0.002153,0.020744,0.075806,-0.013337,0.103464,0.093086
886,130000000.0,0.0,0.0,0.0,1.0,0.0,0.0,0.0,0.0,0.0,0.0,-0.002153,0.020744,0.075806,-0.013337,0.103464,0.093086
887,140000000.0,0.0,0.0,0.0,1.0,0.0,0.0,0.0,0.0,0.0,0.0,-0.002153,0.020744,0.075806,-0.013337,0.103464,0.093086
888,150000000.0,0.0,0.0,0.0,1.0,0.0,0.0,0.0,0.0,0.0,0.0,-0.002153,0.020744,0.075806,-0.013337,0.103464,0.093086
889,160000000.0,0.0,0.0,0.0,1.0,0.0,0.0,0.0,0.0,0.0,0.0,-0.002153,0.020744,0.075806,-0.013337,0.103464,0.093086
890,170000000.0,0.0,0.0,0.0,1.0,0.0,0.0,0.0,0.0,0.0,0.0,-0.002153,0.020744,0.075806,-0.013337,0.103464,0.093086
891,180000000.0,0.0,0.0,0.0,1.0,0.0,0.0,0.0,0.0,0.0,0.0,-0.002153,0.020744,0.075806,-0.013337,0.103464,0.093086
892,190000000.0,0.0,0.0,0.0,1.0,0.0,0.0,0.0,0.0,0.0,0.0,-0.002153,0.020744,0.075806,-0.013337,0.103464,0.093086
893,200000000.0,0.0,0.0,0.0,1.0,0.0,0.0,0.0,0.0,0.0,0.0,-0.002153,0.020744,0.075806,-0.013337,0.103464,0.093086
894,210000000.0,0.0,0.0,0.0,1.0,0.0,0.0,0.0,0.0,0.0,0.0,-0.002153,0.020744,0.075806,-0.013337,0.103464,0.093086
895,220000000.0,0.0,0.0,0.0,1.0,0.0,0.0,0.0,0.0,0.0,0.0,-0.002153,0.020744,0.075806,-0.013337,0.103464,0.093086
896,230000000.0,0.0,0.0,0.0,1.0,0.0,0.0,0.0,0.0,0.0,0.0,-0.002153,0.020744,0.075806,-0.013337,0.103464,0.093086
897,240000000.0,0.0,0.0,0.0,1.0,0.0,0.0,0.0,0.0,0.0,0.0,-0.002153,0.020744,0.075806,-0.013337,0.103464,0.093086
898,250000000.0,0.0,0.0,0.0,1.0,0.0,0.0,0.0,0.0,0.0,0.0,-0.002153,0.020744,0.075806,-0.013337,0.103464,0.093086
899,260000000.0,0.0,0.0,0.0,1.0,0.0,0.0,0.0,0.0,0.0,0.0,-0.002153,0.020744,0.075806,-0.013337,0.103464,0.093086
900,270000000.0,0.0,6.2217819508e-05,0.0,1.0,0.0,0.0,0.0,4.51788935152e-08,-0.00622197147459,3.00168458969e-08,-0.002153,0.020744,0.075806,-0.013337,0.103464,0.093086
901,280000000.0,3.5527136788e-15,0.000114898779429,-2.84217094304e-14,1.0,0.0,0.0,0.0,1.01392558349e-07,-0.00526702869684,-1.80671619896e-08,-0.002153,0.020744,0.075806,-0.013337,0.103464,0.093086
902,290000000.0,3.5527136788e-15,0.000159187358804,-1.42108547152e-14,1.0,0.0,0.0,0.0,1.05093789671e-07,-0.00443021766841,1.46440637385e-08,-0.002153,0.020744,0.075806,-0.013337,0.103464,0.093086
903,300000000.0,0.0,0.000196228036653,0.0,1.0,0.0,0.0,0.0,1.11881050202e-07,-0.00370253552683,2.70199063124e-08,-0.002153,0.020744,0.075806,-0.013337,0.103464,0.093086
904,310000000.0,0.0,0.000226898235269,-1.42108547152e-14,1.0,0.0,0.0,0.0,2.90184765106e-08,-0.00306868553162,-2.02921857098e-08,-0.002153,0.020744,0.075806,-0.013337,0.103464,0.093086
905,320000000.0,3.5527136788e-15,0.000252075260502,0.0,1.0,0.0,0.0,0.0,1.06619971518e-07,-0.00251790042967,-2.93011681628e-09,-0.002153,0.020744,0.075806,-0.013337,0.103464,0.093086
906,330000000.0,3.5527136788e-15,0.000272483914156,-1.42108547152e-14,1.0,0.0,0.0,0.0,-1.4131659043e-07,-0.00204015732743,9.91547377495e-09,-0.002153,0.020744,0.075806,-0.013337,0.103464,0.093086
907,340000000.0,0.0,0.000288772629574,0.0,1.0,0.0,0.0,0.0,-1.54631464966e-07,-0.00162787432782,-6.92267665447e-09,-0.002153,0.020744,0.075806,-0.013337,0.103464,0.093086
908,350000000.0,3.5527136788e-15,0.000301513704475,0.0,1.0,0.0,0.0,0.0,-2.21660130251e-07,-0.00127247802448,8.68268568133e-09,-0.002153,0.020744,0.075806,-0.013337,0.103464,0.093086
909,360000000.0,3.5527136788e-15,0.000311164883897,-2.84217094304e-14,1.0,0.0,0.0,0.0,-2.65910387043e-07,-0.000966625171714,-8.15600920151e-09,-0.002153,0.020744,0.075806,-0.013337,0.103464,0.093086
910,370000000.0,0.0,0.000318222097125,0.0,1.0,0.0,0.0,0.0,8.73454766293e-08,-0.00070595741272,8.35250890663e-09,-0.002153,0.020744,0.075806,-0.013337,0.103464,0.093086
911,380000000.0,3.5527136788e-15,0.000323066720743,-2.84217094304e-14,1.0,0.0,0.0,0.0,2.05852771273e-07,-0.000484828924527,-2.34655388454e-08,-0.002153,0.020744,0.075806,-0.013337,0.103464,0.093086
912,390000000.0,0.0,0.000326004112143,0.0,1.0,0.0,0.0,0.0,1.96641693151e-07,-0.000295228965115,-7.10086256467e-09,-0.002153,0.020744,0.075806,-0.013337,0.103464,0.093086
913,400000000.0,0.0,0.000327377347272,-1.42108547152e-14,1.0,0.0,0.0,0.0,5.13109128519e-08,-0.000136852264404,6.8624812499e-09,-0.002153,0.020744,0.075806,-0.013337,0.103464,0.093086
914,410000000.0,0.0,0.000327377347272,-1.42108547152e-14,1.0,0.0,0.0,0.0,2.16520149365e-07,-3.78608706342e-06,2.12449187131e-08,-0.002153,0.020744,0.075806,-0.013337,0.103464,0.093086
915,420000000.0,0.0,0.000326347420923,-1.42108547152e-14,1.0,0.0,0.0,0.0,3.19813082683e-08,0.000105962753878,-2.58467593994e-08,-0.002153,0.020744,0.075806,-0.013337,0.103464,0.093086
916,430000000.0,3.5527136788e-15,0.000324363703839,0.0,1.0,0.0,0.0,0.0,-1.23650721662e-07,0.000197582237888,-8.61722782018e-09,-0.002153,0.020744,0.075806,-0.013337,0.103464,0.093086
917,440000000.0,0.0,0.00032165530137,0.0,1.0,0.0,0.0,0.0,-1.62648454705e-08,0.000270881660981,-9.30335986024e-09,-0.002153,0.020744,0.075806,-0.013337,0.103464,0.093086
918,450000000.0,0.0,0.000318374717608,-1.42108547152e-14,1.0,0.0,0.0,0.0,5.32631929673e-08,0.00032982826815,2.07885264559e-08,-0.002153,0.020744,0.075806,-0.013337,0.103464,0.093086
919,460000000.0,0.0,0.000314598088153,0.0,1.0,0.0,0.0,0.0,-1.36485070357e-07,0.000377492891857,3.20018322958e-09,-0.002153,0.020744,0.075806,-0.013337,0.103464,0.093086
920,470000000.0,3.5527136788e-15,0.000310478266325,-1.42108547152e-14,1.0,0.0,0.0,0.0,-7.23114652601e-08,0.000412178022088,-1.1173355574e-08,-0.002153,0.020744,0.075806,-0.013337,0.103464,0.093086
921,480000000.0,0.0,0.00030609138776,0.0,1.0,0.0,0.0,0.0,2.66519659675e-08,0.000439748750068,-9.9131893804e-09,-0.002153,0.020744,0.075806,-0.013337,0.103464,0.093086
922,490000000.0,3.5527136788e-15,0.000301513704475,0.0,1.0,0.0,0.0,0.0,-4.27418012094e-09,0.000457477552118,-1.09409947768e-08,-0.002153,0.020744,0.075806,-0.013337,0.103464,0.093086
923,500000000.0,0.0,0.000296821584925,0.0,1.0,0.0,0.0,0.0,-9.30215726669e-09,0.000469484308269,1.9063365997e-08,-0.002153,0.020744,0.075806,-0.013337,0.103464,0.093086
924,510000000.0,0.0,0.000292053213347,-1.42108547152e-14,1.0,0.0,0.0,0.0,2.20242686311e-08,0.000475263572298,-1.32419515352e-08,-0.002153,0.020744,0.075806,-0.013337,0.103464,0.093086
925,520000000.0,3.5527136788e-15,0.000287284841761,-2.84217094304e-14,1.0,0.0,0.0,0.0,4.67648071378e-08,0.000476636865642,-1.16908376312e-08,-0.002153,0.020744,0.075806,-0.013337,0.103464,0.093086
926,530000000.0,0.0,0.000282554654405,0.0,1.0,0.0,0.0,0.0,3.6897926492e-08,0.000473604188301,1.82660873095e-08,-0.002153,0.020744,0.075806,-0.013337,0.103464,0.093086
927,540000000.0,0.0,0.000277900719084,-1.42108547152e-14,1.0,0.0,0.0,0.0,3.77329456569e-08,0.000467119214591,1.62647992853e-08,-0.002153,0.020744,0.075806,-0.013337,0.103464,0.093086
928,550000000.0,3.5527136788e-15,0.000273323152211,-1.42108547152e-14,1.0,0.0,0.0,0.0,1.61828506151e-08,0.000459375383798,1.56419961428e-08,-0.002153,0.020744,0.075806,-0.013337,0.103464,0.093086
929,560000000.0,3.5527136788e-15,0.000268821720965,-1.42108547152e-14,1.0,0.0,0.0,0.0,2.60521971995e-07,0.000449085229775,-1.50517891483e-08,-0.002153,0.020744,0.075806,-0.013337,0.103464,0.093086
930,570000000.0,0.0,0.000264473026618,-1.42108547152e-14,1.0,0.0,0.0,0.0,3.75542619224e-08,0.000436115253251,-1.39925839803e-08,-0.002153,0.020744,0.075806,-0.013337,0.103464,0.093086
931,580000000.0,0.0,0.000260238652118,-1.42108547152e-14,1.0,0.0,0.0,0.0,7.88845824218e-08,0.000422153476393,-1.42380356393e-08,-0.002153,0.020744,0.075806,-0.013337,0.103464,0.093086
932,590000000.0,0.0,0.000256195082326,0.0,1.0,0.0,0.0,0.0,-3.45578605732e-08,0.00040616033948,2.58467025614e-10,-0.002153,0.020744,0.075806,-0.013337,0.103464,0.093086
933,600000000.0,0.0,0.000252265948802,-1.42108547152e-14,1.0,0.0,0.0,0.0,3.88914642713e-08,0.000391759851482,-1.66821312319e-08,-0.002153,0.020744,0.075806,-0.013337,0.103464,0.093086
934,610000000.0,0.0,0.000248565687798,-1.42108547152e-14,1.0,0.0,0.0,0.0,6.70383748513e-09,0.000375623698346,-1.60365640766e-08,-0.002153,0.020744,0.075806,-0.013337,0.103464,0.093086
935,620000000.0,0.0,0.000244941795245,0.0,1.0,0.0,0.0,0.0,2.96770448216e-08,0.000359983445378,2.98688682677e-08,-0.002153,0.020744,0.075806,-0.013337,0.103464,0.093086
936,630000000.0,0.0,0.000241508474581,-1.42108547152e-14,1.0,0.0,0.0,0.0,-2.1747698753e-08,0.000342788698617,1.16600027412e-08,-0.002153,0.020744,0.075806,-0.013337,0.103464,0.093086
937,640000000.0,3.5527136788e-15,0.000238227890808,-2.84217094304e-14,1.0,0.0,0.0,0.0,-1.20011884874e-08,0.000326490408042,1.24344303743e-08,-0.002153,0.020744,0.075806,-0.013337,0.103464,0.093086
938,650000000.0,0.0,0.000235137995336,-1.42108547152e-14,1.0,0.0,0.0,0.0,-3.94764292366e-08,0.000309858325636,-3.04004510449e-09,-0.002153,0.020744,0.075806,-0.013337,0.103464,0.093086
939,660000000.0,0.0,0.000232200720351,-1.42108547152e-14,1.0,0.0,0.0,0.0,3.80672666722e-08,0.000294752127957,1.2722532361e-08,-0.002153,0.020744,0.075806,-0.013337,0.103464,0.093086
940,670000000.0,0.0,0.000229415949434,-1.42108547152e-14,1.0,0.0,0.0,0.0,-4.07128908364e-09,0.000279741274426,-1.91351023914e-08,-0.002153,0.020744,0.075806,-0.013337,0.103464,0.093086
941,680000000.0,0.0,0.000229415949434,-1.42108547152e-14,1.0,0.0,0.0,0.0,0.0,0.0,0.0,-0.002153,0.020744,0.075806,-0.013337,0.103464,0.093086
942,690000000.0,0.0,0.000229415949434,-1.42108547152e-14,1.0,0.0,0.0,0.0,-9.4351841895e-09,6.49738285574e-05,-5.65088420494e-10,-0.002153,0.020744,0.075806,-0.013337,0.103464,0.093086
943,700000000.0,3.5527136788e-15,0.000227928161625,-1.42108547152e-14,1.0,0.0,0.0,0.0,-1.86028614735e-09,8.56971746543e-05,2.94549291624e-08,-0.002153,0.020744,0.075806,-0.013337,0.103464,0.093086
944,710000000.0,0.0,0.000226898235269,-1.42108547152e-14,1.0,0.0,0.0,0.0,3.65294816618e-08,0.000101871490187,-1.80619572632e-08,-0.002153,0.020744,0.075806,-0.013337,0.103464,0.093086
945,720000000.0,3.5527136788e-15,0.000225753872662,0.0,1.0,0.0,0.0,0.0,-2.9770225396e-08,0.000115432740131,-7.1915223774e-10,-0.002153,0.020744,0.075806,-0.013337,0.103464,0.093086
946,730000000.0,0.0,0.000224494957362,-1.42108547152e-14,1.0,0.0,0.0,0.0,-5.29043031605e-09,0.000125446313177,-1.86841342395e-09,-0.002153,0.020744,0.075806,-0.013337,0.103464,0.093086
947,740000000.0,0.0,0.000223159790039,-1.42108547152e-14,1.0,0.0,0.0,0.0,8.2660482903e-09,0.000132112501888,-2.77353451314e-09,-0.002153,0.020744,0.075806,-0.013337,0.103464,0.093086
948,750000000.0,0.0,0.000221786554906,0.0,1.0,0.0,0.0,0.0,1.40552336436e-09,0.000137453069328,2.77171281482e-08,-0.002153,0.020744,0.075806,-0.013337,0.103464,0.093086
949,760000000.0,0.0,0.000220375135541,-1.42108547152e-14,1.0,0.0,0.0,0.0,-8.58336246523e-09,0.00013956069597,-5.07786568348e-09,-0.002153,0.020744,0.075806,-0.013337,0.103464,0.093086
950,770000000.0,0.0,0.000218963716179,-1.42108547152e-14,1.0,0.0,0.0,0.0,-3.8719850437e-08,0.000141334530781,1.077552092e-08,-0.002153,0.020744,0.075806,-0.013337,0.103464,0.093086
951,780000000.0,3.5527136788e-15,0.000217552180402,0.0,1.0,0.0,0.0,0.0,6.5419612838e-08,0.000140790929436,9.81069536723e-09,-0.002153,0.020744,0.075806,-0.013337,0.103464,0.093086
952,790000000.0,0.0,0.000216140761044,0.0,1.0,0.0,0.0,0.0,1.15042073645e-08,0.000139808646054,-2.09967350173e-08,-0.002153,0.020744,0.075806,-0.013337,0.103464,0.093086
953,800000000.0,0.0,0.000214767525907,-1.42108547152e-14,1.0,0.0,0.0,0.0,-3.27408109513e-08,0.00013774872059,-4.77229145088e-09,-0.002153,0.020744,0.075806,-0.013337,0.103464,0.093086
954,810000000.0,3.5527136788e-15,0.000213394174352,-1.42108547152e-14,1.0,0.0,0.0,0.0,5.10223330252e-09,0.000135602953378,-6.30893959294e-09,-0.002153,0.020744,0.075806,-0.013337,0.103464,0.093086
955,820000000.0,3.5527136788e-15,0.000212059123442,0.0,1.0,0.0,0.0,0.0,-3.61211753841e-08,0.00013256072998,8.92549234523e-09,-0.002153,0.020744,0.075806,-0.013337,0.103464,0.093086
956,830000000.0,0.0,0.000210762023929,-1.42108547152e-14,1.0,0.0,0.0,0.0,-1.72545764343e-08,0.000128002167912,8.17147327584e-09,-0.002153,0.020744,0.075806,-0.013337,0.103464,0.093086
957,840000000.0,0.0,0.00020954140928,0.0,1.0,0.0,0.0,0.0,6.99245319424e-08,0.000122995377751,7.19288362208e-09,-0.002153,0.020744,0.075806,-0.013337,0.103464,0.093086
958,850000000.0,0.0,0.000208358862437,0.0,1.0,0.0,0.0,0.0,-6.10294321746e-08,0.000119819640531,6.29367180595e-09,-0.002153,0.020744,0.075806,-0.013337,0.103464,0.093086
959,860000000.0,0.0,0.000207214383401,-1.42108547152e-14,1.0,0.0,0.0,0.0,6.31079686286e-08,0.000114965434477,-2.40062512091e-08,-0.002153,0.020744,0.075806,-0.013337,0.103464,0.093086
960,870000000.0,0.0,0.000206108088605,0.0,1.0,0.0,0.0,0.0,-2.53105554293e-08,0.000109901426185,2.22097131797e-08,-0.002153,0.020744,0.075806,-0.013337,0.103464,0.093086
961,880000000.0,0.0,0.000205039978024,-1.42108547152e-14,1.0,0.0,0.0,0.0,-3.61042107322e-09,0.000105104445538,1.90254283439e-08,-0.002153,0.020744,0.075806,-0.013337,0.103464,0.093086
962,890000000.0,0.0,0.000205039978024,-1.42108547152e-14,1.0,0.0,0.0,0.0,3.65745265185e-08,0.000100612640381,-2.70706994598e-08,-0.002153,0.020744,0.075806,-0.013337,0.103464,0.093086
963,900000000.0,0.0,0.000203094561591,-1.42108547152e-14,1.0,0.0,0.0,0.0,-2.8925001061e-08,9.56439980655e-05,2.01512015963e-08,-0.002153,0.020744,0.075806,-0.013337,0.103464,0.093086
964,910000000.0,0.0,0.000203094561591,-1.42108547152e-14,1.0,0.0,0.0,0.0,3.2462413202e-08,9.00363884284e-05,1.82819914764e-09,-0.002153,0.020744,0.075806,-0.013337,0.103464,0.093086
965,920000000.0,0.0,0.000201301649213,0.0,1.0,0.0,0.0,0.0,-3.0037774934e-08,8.65364054334e-05,-1.32598971802e-08,-0.002153,0.020744,0.075806,-0.013337,0.103464,0.093086
966,930000000.0,0.0,0.000201301649213,0.0,1.0,0.0,0.0,0.0,6.18033002553e-09,8.10909259599e-05,-1.36915963011e-08,-0.002153,0.020744,0.075806,-0.013337,0.103464,0.093086
967,940000000.0,3.5527136788e-15,0.000199737609364,-2.84217094304e-14,1.0,0.0,0.0,0.0,2.9226226772e-08,7.68089303165e-05,-2.97289020068e-08,-0.002153,0.020744,0.075806,-0.013337,0.103464,0.093086
968,950000000.0,3.5527136788e-15,0.000199737609364,-2.84217094304e-14,1.0,0.0,0.0,0.0,-2.15241087176e-08,7.30895990273e-05,1.60111941483e-08,-0.002153,0.020744,0.075806,-0.013337,0.103464,0.093086
969,960000000.0,0.0,0.000198326190002,0.0,1.0,0.0,0.0,0.0,-4.98608052624e-08,6.89506487106e-05,-2.51004284023e-09,-0.002153,0.020744,0.075806,-0.013337,0.103464,0.093086
970,970000000.0,0.0,0.000198326190002,0.0,1.0,0.0,0.0,0.0,3.59507268399e-08,6.48117056699e-05,1.3494380724e-08,-0.002153,0.020744,0.075806,-0.013337,0.103464,0.093086
971,980000000.0,3.5527136788e-15,0.000197067274712,-1.42108547152e-14,1.0,0.0,0.0,0.0,5.12223774507e-09,6.12544972682e-05,1.21969740974e-08,-0.002153,0.020744,0.075806,-0.013337,0.103464,0.093086
972,990000000.0,3.5527136788e-15,0.000197067274712,-1.42108547152e-14,1.0,0.0,0.0,0.0,-3.6534864023e-08,5.75542435399e-05,-3.42925199347e-09,-0.002153,0.020744,0.075806,-0.013337,0.103464,0.093086
973,1000000000.0,0.0,0.000195961096328,0.0,1.0,0.0,0.0,0.0,2.0197003181e-08,5.40733308299e-05,-1.82663413284e-08,-0.002153,0.020744,0.075806,-0.013337,0.103464,0.093086
974,1010000000.0,0.0,0.000195961096328,0.0,1.0,0.0,0.0,0.0,3.14306691784e-09,5.10597201355e-05,1.20218324185e-08,-0.002153,0.020744,0.075806,-0.013337,0.103464,0.093086
975,1020000000.0,0.0,0.000195961096328,0.0,1.0,0.0,0.0,0.0,3.73412945009e-08,4.73880754726e-05,-5.19935161591e-09,-0.002153,0.020744,0.075806,-0.013337,0.103464,0.093086
976,1030000000.0,0.0,0.000194549560547,-1.42108547152e-14,1.0,0.0,0.0,0.0,-2.04809058602e-08,4.46605663456e-05,1.04223323305e-08,-0.002153,0.020744,0.075806,-0.013337,0.103464,0.093086
977,1040000000.0,0.0,0.000194549560547,-1.42108547152e-14,1.0,0.0,0.0,0.0,-1.20570211593e-08,4.2800900701e-05,-2.15726956298e-08,-0.002153,0.020744,0.075806,-0.013337,0.103464,0.093086
978,1050000000.0,0.0,0.000194549560547,-1.42108547152e-14,1.0,0.0,0.0,0.0,7.62829088785e-09,3.9730071876e-05,-2.04178824958e-08,-0.002153,0.020744,0.075806,-0.013337,0.103464,0.093086
979,1060000000.0,0.0,0.000193367013711,-1.42108547152e-14,1.0,0.0,0.0,0.0,-8.18111001166e-09,3.69358058379e-05,1.01174100209e-08,-0.002153,0.020744,0.075806,-0.013337,0.103464,0.093086
980,1070000000.0,0.0,0.000193367013711,-1.42108547152e-14,1.0,0.0,0.0,0.0,8.30377722139e-09,3.401756112e-05,-2.28741132702e-08,-0.002153,0.020744,0.075806,-0.013337,0.103464,0.093086
981,1080000000.0,0.0,0.000193367013711,-1.42108547152e-14,1.0,0.0,0.0,0.0,5.3308496506e-10,3.21292864101e-05,-2.1317079657e-08,-0.002153,0.020744,0.075806,-0.013337,0.103464,0.093086
982,1090000000.0,0.0,0.000193367013711,-1.42108547152e-14,1.0,0.0,0.0,0.0,2.71598743495e-08,3.09085844492e-05,2.40709621124e-08,-0.002153,0.020744,0.075806,-0.013337,0.103464,0.093086
983,1100000000.0,0.0,0.000193367013711,-1.42108547152e-14,1.0,0.0,0.0,0.0,0.0,0.0,0.0,-0.002153,0.020744,0.075806,-0.013337,0.103464,0.093086
984,1110000000.0,0.0,0.000192337087359,-1.42108547152e-14,1.0,0.0,0.0,0.0,-5.36844180221e-10,6.35147080175e-06,2.22736315504e-10,-0.002153,0.020744,0.075806,-0.013337,0.103464,0.093086
985,1120000000.0,0.0,0.000192337087359,-1.42108547152e-14,1.0,0.0,0.0,0.0,-4.70359395877e-08,7.9631799963e-06,-1.4836283313e-08,-0.002153,0.020744,0.075806,-0.013337,0.103464,0.093086
986,1130000000.0,0.0,0.000192337087359,-1.42108547152e-14,1.0,0.0,0.0,0.0,6.35223784684e-08,1.04427335827e-05,1.69031277864e-08,-0.002153,0.020744,0.075806,-0.013337,0.103464,0.093086
987,1140000000.0,0.0,0.000192337087359,-1.42108547152e-14,1.0,0.0,0.0,0.0,-2.71989435419e-08,1.11675262815e-05,-2.75369976819e-10,-0.002153,0.020744,0.075806,-0.013337,0.103464,0.093086
988,1150000000.0,0.0,0.000192337087359,-1.42108547152e-14,1.0,0.0,0.0,0.0,-5.12736031411e-09,1.13487240014e-05,8.79536776747e-10,-0.002153,0.020744,0.075806,-0.013337,0.103464,0.093086
989,1160000000.0,0.0,0.000192337087359,-1.42108547152e-14,1.0,0.0,0.0,0.0,-1.34433975063e-09,1.1425017874e-05,8.28225377172e-10,-0.002153,0.020744,0.075806,-0.013337,0.103464,0.093086
990,1170000000.0,0.0,0.000192337087359,-1.42108547152e-14,1.0,0.0,0.0,0.0,-8.36297031626e-10,1.22261044453e-05,-2.91732558111e-08,-0.002153,0.020744,0.075806,-0.013337,0.103464,0.093086
991,1180000000.0,0.0,0.000192337087359,-1.42108547152e-14,1.0,0.0,0.0,0.0,-1.18658149972e-09,1.27124785649e-05,3.18792214849e-09,-0.002153,0.020744,0.075806,-0.013337,0.103464,0.093086
992,1190000000.0,0.0,0.000192337087359,-1.42108547152e-14,1.0,0.0,0.0,0.0,3.6270396464e-08,1.35135651362e-05,1.69755285384e-08,-0.002153,0.020744,0.075806,-0.013337,0.103464,0.093086
993,1200000000.0,0.0,0.000191307161007,-1.42108547152e-14,1.0,0.0,0.0,0.0,6.74202516038e-09,1.3132094864e-05,1.63381574936e-08,-0.002153,0.020744,0.075806,-0.013337,0.103464,0.093086
994,1210000000.0,0.0,0.000191307161007,-1.42108547152e-14,1.0,0.0,0.0,0.0,-3.42071366788e-08,1.30748749143e-05,1.08116071651e-09,-0.002153,0.020744,0.075806,-0.013337,0.103464,0.093086
995,1220000000.0,0.0,0.000191307161007,-1.42108547152e-14,1.0,0.0,0.0,0.0,-4.27843289685e-08,1.29032132463e-05,-1.32474582415e-08,-0.002153,0.020744,0.075806,-0.013337,0.103464,0.093086
996,1230000000.0,0.0,0.000191307161007,-1.42108547152e-14,1.0,0.0,0.0,0.0,6.50962519444e-08,1.36661528813e-05,-1.22094387933e-08,-0.002153,0.020744,0.075806,-0.013337,0.103464,0.093086
997,1240000000.0,0.0,0.000191307161007,-1.42108547152e-14,1.0,0.0,0.0,0.0,1.15247758004e-08,1.28459923872e-05,-1.24461507767e-08,-0.002153,0.020744,0.075806,-0.013337,0.103464,0.093086
998,1250000000.0,0.0,0.000191307161007,-1.42108547152e-14,1.0,0.0,0.0,0.0,3.57436524823e-09,1.25408168969e-05,1.82510735414e-08,-0.002153,0.020744,0.075806,-0.013337,0.103464,0.093086
999,1260000000.0,0.0,0.000191307161007,-1.42108547152e-14,1.0,0.0,0.0,0.0,-3.51127411591e-08,1.19209289551e-05,1.32506439154e-09,-0.002153,0.020744,0.075806,-0.013337,0.103464,0.093086
1000,1270000000.0,0.0,0.000191307161007,-1.42108547152e-14,1.0,0.0,0.0,0.0,-4.36662581649e-08,1.11961362563e-05,-1.27726522692e-08,-0.002153,0.020744,0.075806,-0.013337,0.103464,0.093086
1001,1280000000.0,0.0,0.000191307161007,-1.42108547152e-14,1.0,0.0,0.0,0.0,2.79347425192e-08,1.09958646135e-05,3.75576414413e-09,-0.002153,0.020744,0.075806,-0.013337,0.103464,0.093086
1002,1290000000.0,0.0,0.000190239050426,0.0,1.0,0.0,0.0,0.0,3.68794639272e-09,1.11198423838e-05,2.94597368722e-09,-0.002153,0.020744,0.075806,-0.013337,0.103464,0.093086
1003,1300000000.0,0.0,0.000190239050426,0.0,1.0,0.0,0.0,0.0,5.18214415823e-10,1.05285644167e-05,-2.72860773975e-08,-0.002153,0.020744,0.075806,-0.013337,0.103464,0.093086
1004,1310000000.0,0.0,0.000190239050426,0.0,1.0,0.0,0.0,0.0,3.63653676061e-08,1.0662078239e-05,2.05761665484e-08,-0.002153,0.020744,0.075806,-0.013337,0.103464,0.093086
1005,1320000000.0,0.0,0.000190239050426,0.0,1.0,0.0,0.0,0.0,-2.99412228344e-08,9.46044929151e-06,2.36017516642e-09,-0.002153,0.020744,0.075806,-0.013337,0.103464,0.093086
1006,1330000000.0,0.0,0.000190239050426,0.0,1.0,0.0,0.0,0.0,3.28602283162e-08,9.65118397289e-06,-1.10869224912e-08,-0.002153,0.020744,0.075806,-0.013337,0.103464,0.093086
1007,1340000000.0,0.0,0.000190239050426,0.0,1.0,0.0,0.0,0.0,6.19321527395e-09,8.47816409077e-06,2.03988452796e-08,-0.002153,0.020744,0.075806,-0.013337,0.103464,0.093086
1008,1350000000.0,0.0,0.000190239050426,0.0,1.0,0.0,0.0,0.0,-7.17331616329e-08,7.43865939512e-06,-1.16886571533e-08,-0.002153,0.020744,0.075806,-0.013337,0.103464,0.093086
1009,1360000000.0,0.0,0.000190239050426,0.0,1.0,0.0,0.0,0.0,6.00496292691e-08,7.58171063353e-06,2.11009822948e-08,-0.002153,0.020744,0.075806,-0.013337,0.103464,0.093086
1010,1370000000.0,0.0,0.000190239050426,0.0,1.0,0.0,0.0,0.0,-6.35775521118e-08,6.4182281676e-06,-1.14324256728e-08,-0.002153,0.020744,0.075806,-0.013337,0.103464,0.093086
1011,1380000000.0,0.0,0.000190239050426,0.0,1.0,0.0,0.0,0.0,6.18182198764e-08,6.4277646743e-06,2.10495088027e-08,-0.002153,0.020744,0.075806,-0.013337,0.103464,0.093086
1012,1390000000.0,0.0,0.000190239050426,0.0,1.0,0.0,0.0,0.0,-2.59603254449e-08,5.54084772375e-06,-2.65733799409e-08,-0.002153,0.020744,0.075806,-0.013337,0.103464,0.093086
1013,1400000000.0,0.0,0.000190239050426,0.0,1.0,0.0,0.0,0.0,-4.57027660161e-09,5.44548038306e-06,6.4277170253e-09,-0.002153,0.020744,0.075806,-0.013337,0.103464,0.093086
1014,1410000000.0,0.0,0.000190239050426,0.0,1.0,0.0,0.0,0.0,3.56728122597e-08,5.73158240513e-06,1.98338234725e-08,-0.002153,0.020744,0.075806,-0.013337,0.103464,0.093086
1015,1420000000.0,0.0,0.000190239050426,0.0,1.0,0.0,0.0,0.0,-2.95772508707e-08,4.71115117762e-06,-2.68023079286e-08,-0.002153,0.020744,0.075806,-0.013337,0.103464,0.093086
1016,1430000000.0,3.5527136788e-15,0.000189209007658,-1.42108547152e-14,1.0,0.0,0.0,0.0,-5.01770047734e-09,4.47273259851e-06,6.31598595646e-09,-0.002153,0.020744,0.075806,-0.013337,0.103464,0.093086
1017,1440000000.0,3.5527136788e-15,0.000189209007658,-1.42108547152e-14,1.0,0.0,0.0,0.0,3.57301246368e-08,4.62532034362e-06,1.98012379826e-08,-0.002153,0.020744,0.075806,-0.013337,0.103464,0.093086
1018,1450000000.0,3.5527136788e-15,0.000189209007658,-1.42108547152e-14,1.0,0.0,0.0,0.0,-2.03228580631e-08,4.22477705797e-06,-2.63772133025e-08,-0.002153,0.020744,0.075806,-0.013337,0.103464,0.093086
1019,1460000000.0,3.5527136788e-15,0.000189209007658,-1.42108547152e-14,1.0,0.0,0.0,0.0,-4.8921240392e-08,3.57627868652e-06,-8.588886935e-09,-0.002153,0.020744,0.075806,-0.013337,0.103464,0.093086
1020,1470000000.0,3.5527136788e-15,0.000189209007658,-1.42108547152e-14,1.0,0.0,0.0,0.0,2.66688395811e-08,3.6144256228e-06,5.59333868111e-09,-0.002153,0.020744,0.075806,-0.013337,0.103464,0.093086
1021,1480000000.0,3.5527136788e-15,0.000189209007658,-1.42108547152e-14,1.0,0.0,0.0,0.0,4.04134041787e-08,3.62396235687e-06,1.98291356668e-08,-0.002153,0.020744,0.075806,-0.013337,0.103464,0.093086
1022,1490000000.0,3.5527136788e-15,0.000189209007658,-1.42108547152e-14,1.0,0.0,0.0,0.0,-1.90773974396e-08,3.08990479425e-06,-2.60711932043e-08,-0.002153,0.020744,0.075806,-0.013337,0.103464,0.093086
1023,1500000000.0,3.5527136788e-15,0.000189209007658,-1.42108547152e-14,1.0,0.0,0.0,0.0,-4.82752149367e-08,2.30789169109e-06,-7.97799604157e-09,-0.002153,0.020744,0.075806,-0.013337,0.103464,0.093086
1024,1510000000.0,3.5527136788e-15,0.000189209007658,-1.42108547152e-14,1.0,0.0,0.0,0.0,6.45669828714e-08,1.80244444437e-06,2.13720152686e-08,-0.002153,0.020744,0.075806,-0.013337,0.103464,0.093086
1025,1520000000.0,3.5527136788e-15,0.000189209007658,-1.42108547152e-14,1.0,0.0,0.0,0.0,0.0,0.0,0.0,-0.002153,0.020744,0.075806,-0.013337,0.103464,0.093086
1026,1530000000.0,3.5527136788e-15,0.000189209007658,-1.42108547152e-14,1.0,0.0,0.0,0.0,2.67598943005e-10,3.24249270989e-07,-2.02866307086e-10,-0.002153,0.020744,0.075806,-0.013337,0.103464,0.093086
1027,1540000000.0,3.5527136788e-15,0.000189209007658,-1.42108547152e-14,1.0,0.0,0.0,0.0,3.22076393333e-10,6.48498541977e-07,-3.9238187699e-10,-0.002153,0.020744,0.075806,-0.013337,0.103464,0.093086
1028,1550000000.0,3.5527136788e-15,0.000189209007658,-1.42108547152e-14,1.0,0.0,0.0,0.0,3.45810907687e-10,9.72747784544e-07,-5.81687309431e-10,-0.002153,0.020744,0.075806,-0.013337,0.103464,0.093086
1029,1560000000.0,3.5527136788e-15,0.000189209007658,-1.42108547152e-14,1.0,0.0,0.0,0.0,3.65108332456e-10,1.29699708395e-06,-7.71007035993e-10,-0.002153,0.020744,0.075806,-0.013337,0.103464,0.093086
1030,1570000000.0,3.5527136788e-15,0.000189209007658,-1.42108547152e-14,1.0,0.0,0.0,0.0,3.83768905543e-10,1.62124626968e-06,-9.60330925892e-10,-0.002153,0.020744,0.075806,-0.013337,0.103464,0.093086
1031,1580000000.0,3.5527136788e-15,0.000189209007658,-1.42108547152e-14,1.0,0.0,0.0,0.0,4.02334943139e-10,1.94549556909e-06,-1.14965525988e-09,-0.002153,0.020744,0.075806,-0.013337,0.103464,0.093086
1032,1590000000.0,3.5527136788e-15,0.000189209007658,-1.42108547152e-14,1.0,0.0,0.0,0.0,3.71139670108e-08,1.8215179125e-06,1.41965186273e-08,-0.002153,0.020744,0.075806,-0.013337,0.103464,0.093086
1033,1600000000.0,3.5527136788e-15,0.000189209007658,-1.42108547152e-14,1.0,0.0,0.0,0.0,7.91812215795e-09,2.11715700971e-06,1.34198803181e-08,-0.002153,0.020744,0.075806,-0.013337,0.103464,0.093086
1034,1610000000.0,3.5527136788e-15,0.000189209007658,-1.42108547152e-14,1.0,0.0,0.0,0.0,-2.35377246582e-08,1.44004820868e-06,-3.16715329518e-08,-0.002153,0.020744,0.075806,-0.013337,0.103464,0.093086
1035,1620000000.0,3.5527136788e-15,0.000189209007658,-1.42108547152e-14,1.0,0.0,0.0,0.0,-3.97309705136e-08,1.26838676806e-06,-1.34173996358e-08,-0.002153,0.020744,0.075806,-0.013337,0.103464,0.093086
1036,1630000000.0,3.5527136788e-15,0.000189209007658,-1.42108547152e-14,1.0,0.0,0.0,0.0,2.04304164697e-08,1.83105464657e-06,1.48616774442e-09,-0.002153,0.020744,0.075806,-0.013337,0.103464,0.093086
1037,1640000000.0,3.5527136788e-15,0.000189209007658,-1.42108547152e-14,1.0,0.0,0.0,0.0,3.50436724084e-09,2.07901007343e-06,1.1169646319e-09,-0.002153,0.020744,0.075806,-0.013337,0.103464,0.093086
1038,1650000000.0,3.5527136788e-15,0.000189209007658,-1.42108547152e-14,1.0,0.0,0.0,0.0,-3.64173473599e-08,1.24931329992e-06,-1.37176288106e-08,-0.002153,0.020744,0.075806,-0.013337,0.103464,0.093086
1039,1660000000.0,3.5527136788e-15,0.000189209007658,-1.42108547152e-14,1.0,0.0,0.0,0.0,-7.19702475394e-09,1.46865841089e-06,-1.21303331824e-08,-0.002153,0.020744,0.075806,-0.013337,0.103464,0.093086
1040,1670000000.0,3.5527136788e-15,0.000189209007658,-1.42108547152e-14,1.0,0.0,0.0,0.0,-2.98073898897e-09,1.68800352185e-06,-1.15703562287e-08,-0.002153,0.020744,0.075806,-0.013337,0.103464,0.093086
1041,1680000000.0,3.5527136788e-15,0.000189209007658,-1.42108547152e-14,1.0,0.0,0.0,0.0,3.4857134068e-08,1.47819514495e-06,4.29835589344e-09,-0.002153,0.020744,0.075806,-0.013337,0.103464,0.093086
1042,1690000000.0,3.5527136788e-15,0.000189209007658,-1.42108547152e-14,1.0,0.0,0.0,0.0,5.83775516816e-09,1.68800352185e-06,3.9707073185e-09,-0.002153,0.020744,0.075806,-0.013337,0.103464,0.093086
1043,1700000000.0,3.5527136788e-15,0.000189209007658,-1.42108547152e-14,1.0,0.0,0.0,0.0,1.68478542228e-09,1.89781189874e-06,4.65971128349e-09,-0.002153,0.020744,0.075806,-0.013337,0.103464,0.093086
1044,1710000000.0,3.5527136788e-15,0.000189209007658,-1.42108547152e-14,1.0,0.0,0.0,0.0,-3.61096432755e-08,2.52723680205e-06,-9.96038806988e-09,-0.002153,0.020744,0.075806,-0.013337,0.103464,0.093086
1045,1720000000.0,3.5527136788e-15,0.000189209007658,-1.42108547152e-14,1.0,0.0,0.0,0.0,6.75425013696e-08,1.86920158285e-06,2.19772893217e-08,-0.002153,0.020744,0.075806,-0.013337,0.103464,0.093086
1046,1730000000.0,3.5527136788e-15,0.000189209007658,-1.42108547152e-14,1.0,0.0,0.0,0.0,1.27834027808e-08,2.05039964385e-06,2.01284091617e-08,-0.002153,0.020744,0.075806,-0.013337,0.103464,0.093086
1047,1740000000.0,3.5527136788e-15,0.000189209007658,-1.42108547152e-14,1.0,0.0,0.0,0.0,4.11002698542e-09,2.19345088226e-06,2.0520843691e-08,-0.002153,0.020744,0.075806,-0.013337,0.103464,0.093086
1048,1750000000.0,3.5527136788e-15,0.000189209007658,-1.42108547152e-14,1.0,0.0,0.0,0.0,-6.12816037915e-08,9.53674316406e-07,-9.33771104883e-09,-0.002153,0.020744,0.075806,-0.013337,0.103464,0.093086
1049,1760000000.0,3.5527136788e-15,0.000189209007658,-1.42108547152e-14,1.0,0.0,0.0,0.0,2.71586202416e-08,1.48773187902e-06,-2.18811688768e-08,-0.002153,0.020744,0.075806,-0.013337,0.103464,0.093086
1050,1770000000.0,3.5527136788e-15,0.000189209007658,-1.42108547152e-14,1.0,0.0,0.0,0.0,-3.19000683646e-08,1.18255616144e-06,-5.43933875718e-09,-0.002153,0.020744,0.075806,-0.013337,0.103464,0.093086
1051,1780000000.0,3.5527136788e-15,0.000189209007658,-1.42108547152e-14,1.0,0.0,0.0,0.0,2.18211368974e-08,1.61170953561e-06,9.38487065838e-09,-0.002153,0.020744,0.075806,-0.013337,0.103464,0.093086
1052,1790000000.0,3.5527136788e-15,0.000189209007658,-1.42108547152e-14,1.0,0.0,0.0,0.0,-2.38313937473e-08,1.42097474054e-06,-6.26938678749e-09,-0.002153,0.020744,0.075806,-0.013337,0.103464,0.093086
1053,1800000000.0,3.5527136788e-15,0.000189209007658,-1.42108547152e-14,1.0,0.0,0.0,0.0,2.29975096744e-08,1.84059138064e-06,1.05097468506e-08,-0.002153,0.020744,0.075806,-0.013337,0.103464,0.093086
1054,1810000000.0,3.5527136788e-15,0.000189209007658,-1.42108547152e-14,1.0,0.0,0.0,0.0,-2.3648011549e-08,1.64985658557e-06,-5.09679098926e-09,-0.002153,0.020744,0.075806,-0.013337,0.103464,0.093086
1055,1820000000.0,3.5527136788e-15,0.000189209007658,-1.42108547152e-14,1.0,0.0,0.0,0.0,6.03517733566e-08,2.49862659985e-06,-3.4618641287e-09,-0.002153,0.020744,0.075806,-0.013337,0.103464,0.093086
1056,1830000000.0,3.5527136788e-15,0.000189209007658,-1.42108547152e-14,1.0,0.0,0.0,0.0,-6.23568823244e-08,1.12533564334e-06,-3.33064109626e-09,-0.002153,0.020744,0.075806,-0.013337,0.103464,0.093086
1057,1840000000.0,3.5527136788e-15,0.000189209007658,-1.42108547152e-14,1.0,0.0,0.0,0.0,-1.1031829672e-08,1.20162962958e-06,-2.86082313394e-09,-0.002153,0.020744,0.075806,-0.013337,0.103464,0.093086
1058,1850000000.0,3.5527136788e-15,0.000189209007658,-1.42108547152e-14,1.0,0.0,0.0,0.0,-3.64732199998e-09,1.27792350213e-06,-2.42612085977e-09,-0.002153,0.020744,0.075806,-0.013337,0.103464,0.093086
1059,1860000000.0,3.5527136788e-15,0.000189209007658,-1.42108547152e-14,1.0,0.0,0.0,0.0,-1.93216442845e-09,1.36375422244e-06,-2.30574559445e-09,-0.002153,0.020744,0.075806,-0.013337,0.103464,0.093086
1060,1870000000.0,3.5527136788e-15,0.000189209007658,-1.42108547152e-14,1.0,0.0,0.0,0.0,3.55134019969e-08,1.86920158285e-06,-1.72361538375e-08,-0.002153,0.020744,0.075806,-0.013337,0.103464,0.093086
1061,1880000000.0,3.5527136788e-15,0.000189209007658,-1.42108547152e-14,1.0,0.0,0.0,0.0,6.47518838548e-09,1.11579890927e-06,1.41207747717e-08,-0.002153,0.020744,0.075806,-0.013337,0.103464,0.093086
1062,1890000000.0,3.5527136788e-15,0.000189209007658,-1.42108547152e-14,1.0,0.0,0.0,0.0,-3.48664919159e-08,1.61170953561e-06,-2.89271606668e-09,-0.002153,0.020744,0.075806,-0.013337,0.103464,0.093086
1063,1900000000.0,3.5527136788e-15,0.000189209007658,-1.42108547152e-14,1.0,0.0,0.0,0.0,6.81089389332e-08,1.69754025592e-06,-1.50261525444e-09,-0.002153,0.020744,0.075806,-0.013337,0.103464,0.093086
1064,1910000000.0,3.5527136788e-15,0.000189209007658,-1.42108547152e-14,1.0,0.0,0.0,0.0,-6.10824884006e-08,1.77383424216e-06,-1.35884004049e-09,-0.002153,0.020744,0.075806,-0.013337,0.103464,0.093086
1065,1920000000.0,3.5527136788e-15,0.000189209007658,-1.42108547152e-14,1.0,0.0,0.0,0.0,-1.00218313648e-08,1.85966484878e-06,-1.17661724808e-09,-0.002153,0.020744,0.075806,-0.013337,0.103464,0.093086
1066,1930000000.0,3.5527136788e-15,0.000189209007658,-1.42108547152e-14,1.0,0.0,0.0,0.0,3.45941586488e-08,1.51634208123e-06,1.43454981227e-08,-0.002153,0.020744,0.075806,-0.013337,0.103464,0.093086
1067,1940000000.0,3.5527136788e-15,0.000189209007658,-1.42108547152e-14,1.0,0.0,0.0,0.0,0.0,0.0,0.0,-0.002153,0.020744,0.075806,-0.013337,0.103464,0.093086
1068,1950000000.0,3.5527136788e-15,0.000189209007658,-1.42108547152e-14,1.0,0.0,0.0,0.0,8.08120070861e-10,9.53674259563e-08,-1.8948391467e-11,-0.002153,0.020744,0.075806,-0.013337,0.103464,0.093086
1069,1960000000.0,3.5527136788e-15,0.000189209007658,-1.42108547152e-14,1.0,0.0,0.0,0.0,9.71461355803e-10,1.90734851913e-07,-3.76524922352e-11,-0.002153,0.020744,0.075806,-0.013337,0.103464,0.093086
1070,1970000000.0,3.5527136788e-15,0.000189209007658,-1.42108547152e-14,1.0,0.0,0.0,0.0,1.0417655627e-09,2.86102277869e-07,-5.67990030009e-11,-0.002153,0.020744,0.075806,-0.013337,0.103464,0.093086
1071,1980000000.0,3.5527136788e-15,0.000189209007658,-1.42108547152e-14,1.0,0.0,0.0,0.0,1.09864806142e-09,3.81469703825e-07,-7.60267404587e-11,-0.002153,0.020744,0.075806,-0.013337,0.103464,0.093086
1072,1990000000.0,3.5527136788e-15,0.000189209007658,-1.42108547152e-14,1.0,0.0,0.0,0.0,1.15359255481e-09,4.76837158203e-07,-9.52669193532e-11,-0.002153,0.020744,0.075806,-0.013337,0.103464,0.093086
1073,2000000000.0,3.5527136788e-15,0.000189209007658,-1.42108547152e-14,1.0,0.0,0.0,0.0,1.20825549565e-09,5.72204555738e-07,-1.14508916238e-10,-0.002153,0.020744,0.075806,-0.013337,0.103464,0.093086
1074,2010000000.0,3.5527136788e-15,0.000189209007658,-1.42108547152e-14,1.0,0.0,0.0,0.0,1.26287669211e-09,6.67572010116e-07,-1.3375124619e-10,-0.002153,0.020744,0.075806,-0.013337,0.103464,0.093086
1075,2020000000.0,3.5527136788e-15,0.000189209007658,-1.42108547152e-14,1.0,0.0,0.0,0.0,1.31749411381e-09,7.6293940765e-07,-1.52993576141e-10,-0.002153,0.020744,0.075806,-0.013337,0.103464,0.093086
1076,2030000000.0,3.5527136788e-15,0.000189209007658,-1.42108547152e-14,1.0,0.0,0.0,0.0,1.37211131346e-09,8.58306862028e-07,-1.72235878337e-10,-0.002153,0.020744,0.075806,-0.013337,0.103464,0.093086
1077,2040000000.0,1.82254091996e-06,0.000188179081299,3.05227603121e-05,0.999999999998,1.75383404688e-07,-1.97331379606e-06,8.34465327088e-07,6.65382685838e-05,4.86373892272e-07,0.00272749899887,-0.002153,0.020744,0.075806,-0.013337,0.103464,0.093086
1078,2050000000.0,1.84107370771e-06,0.000211868318733,0.00276948602284,0.999999999398,1.61598037451e-07,-2.84742933077e-06,-3.45706921127e-05,-0.000749100116081,9.53674316351e-07,0.271686971188,-0.002153,0.020744,0.075806,-0.013337,0.103464,0.093086
1079,2060000000.0,2.21734074657e-06,0.00025028234813,0.00812534270668,0.999999995787,1.46935257461e-07,-3.27864041783e-06,-9.17315460914e-05,-0.00148353201803,1.63078300364e-06,0.529998242855,-0.002153,0.020744,0.075806,-0.013337,0.103464,0.093086
1080,2070000000.0,3.48134425465e-06,0.000298309372727,0.015907358685,0.999999986687,1.36074655543e-07,-3.53183139407e-06,-0.000163137909828,-0.00215795915574,1.1348723773e-06,0.772635400295,-0.002153,0.020744,0.075806,-0.013337,0.103464,0.093086
1081,2080000000.0,2.64520522464e-06,0.000350608839646,0.0258179781195,0.999999970871,1.30074854554e-07,-3.69308648718e-06,-0.00024133918567,-0.00274841720238,1.17301942726e-06,0.985424101353,-0.002153,0.020744,0.075806,-0.013337,0.103464,0.093086
1082,2090000000.0,2.04026671469e-06,0.000404853839424,0.037704619009,0.999999948175,1.2444012748e-07,-3.78711175791e-06,-0.000321924675045,-0.00329168722965,-2.01225270779e-06,1.18173801899,-0.002153,0.020744,0.075806,-0.013337,0.103464,0.093086
1083,2100000000.0,2.0275970698e-06,0.00045272835996,0.0507509339902,0.999999922708,1.16913587478e-07,-3.85265608793e-06,-0.000393152201221,-0.00361494231038,-1.03950503694e-06,1.29860424995,-0.002153,0.020744,0.075806,-0.013337,0.103464,0.093086
1084,2110000000.0,2.33092831792e-06,0.0005030442262,0.0657427529659,0.999999890501,1.0896691055e-07,-3.86852527123e-06,-0.000467956007067,-0.00415181880817,-1.23977656918e-07,1.49222040176,-0.002153,0.020744,0.075806,-0.013337,0.103464,0.093086
1085,2120000000.0,2.18772401084e-06,0.000550346449018,0.082268084922,0.999999854986,1.02797378831e-07,-3.87997249179e-06,-0.000538527913997,-0.00457886699587,-4.67300395712e-07,1.64607286453,-0.002153,0.020744,0.075806,-0.013337,0.103464,0.093086
1086,2130000000.0,2.31878724932e-06,0.00059307098854,0.100067531446,0.999999818679,1.01491633431e-07,-3.88647968141e-06,-0.00060218567854,-0.0049378182739,-2.10762027597e-06,1.7752751112,-0.002153,0.020744,0.075806,-0.013337,0.103464,0.093086
1087,2140000000.0,2.70291790372e-06,0.000631790142503,0.119148721903,0.999999782191,1.02971482785e-07,-3.88102454324e-06,-0.000660002140064,-0.00529352761805,-3.45230091636e-06,1.90336465836,-0.002153,0.020744,0.075806,-0.013337,0.103464,0.093086
1088,2150000000.0,1.09424011185e-06,0.000662460341122,0.138947072677,0.999999751267,1.02191245854e-07,-3.88570963183e-06,-0.000705301680416,-0.0054930257611,-5.23567177924e-06,1.97519636154,-0.002153,0.020744,0.075806,-0.013337,0.103464,0.093086
1089,2160000000.0,1.98517246375e-06,0.000690307701007,0.159905102842,0.999999721058,1.00876798415e-07,-3.86256595397e-06,-0.000746905694238,-0.00582072651014,-5.9318540484e-06,2.09263110161,-0.002153,0.020744,0.075806,-0.013337,0.103464,0.093086
1090,2170000000.0,2.91783815953e-06,0.000711898785084,0.181534522435,0.999999696687,1.0101409087e-07,-3.69313073273e-06,-0.000778853800231,-0.00600686017424,-5.14030443832e-06,2.1599612236,-0.002153,0.020744,0.075806,-0.013337,0.103464,0.093086
1091,2180000000.0,3.10783389423e-06,0.000730438274328,0.204117617962,0.999999674956,1.07715934172e-07,-3.75126522006e-06,-0.000806271867248,-0.00627325521782,-4.27246095613e-06,2.25647735596,-0.002153,0.020744,0.075806,-0.013337,0.103464,0.093086
1092,2190000000.0,3.42436334932e-06,0.000744133023542,0.227341585455,0.999999658163,1.1537486333e-07,-4.03410411731e-06,-0.000826835482096,-0.00645197322592,-3.37600704414e-06,2.32015419006,-0.002153,0.020744,0.075806,-0.013337,0.103464,0.093086
1093,2200000000.0,1.59968371349e-06,0.000754814129323,0.251336118822,0.99999964503,1.15644267884e-07,-3.82513650315e-06,-0.000842571143646,-0.00667074229568,-3.10897826283e-06,2.39818835258,-0.002153,0.020744,0.075806,-0.013337,0.103464,0.093086
1094,2210000000.0,1.9148795154e-06,0.000762100215063,0.275933382629,0.999999635934,1.16573001696e-07,-3.32449590273e-06,-0.000853299920961,-0.00683696847409,-1.98364250581e-06,2.45915269852,-0.002153,0.020744,0.075806,-0.013337,0.103464,0.093086
1095,2220000000.0,2.25060859549e-06,0.000766716082577,0.301209665228,0.99999963001,1.21918289353e-07,-3.44309500844e-06,-0.000860214059346,-0.00702232448384,-1.49726861354e-06,2.52641320229,-0.002153,0.020744,0.075806,-0.013337,0.103464,0.093086
1096,2230000000.0,1.12353145454e-06,0.000768547062759,0.327012374017,0.999999627698,1.26379186449e-07,-3.74088393057e-06,-0.000862896269833,-0.00717492494732,-1.59263606792e-06,2.5800909996,-0.002153,0.020744,0.075806,-0.013337,0.103464,0.093086
1097,2240000000.0,2.1151296643e-06,0.000768547062755,0.353425442613,0.999999627698,1.26379186449e-07,-3.74088393057e-06,-0.000862896269833,-0.007348312065,-1.80244444481e-06,2.64180898666,-0.002153,0.020744,0.075806,-0.013337,0.103464,0.093086
1098,2250000000.0,1.77112221422e-06,0.000766258221109,0.380319161208,0.999999630676,1.17701680902e-07,-3.42124507757e-06,-0.000859439233216,-0.00747788837179,-1.40190115916e-06,2.68909454346,-0.002153,0.020744,0.075806,-0.013337,0.103464,0.093086
1099,2260000000.0,1.78684945951e-06,0.000762748764821,0.407769828754,0.999999635171,1.21233346972e-07,-3.38340675032e-06,-0.000854193991124,-0.0076341656968,-1.91688536733e-06,2.74563407898,-0.002153,0.020744,0.075806,-0.013337,0.103464,0.093086
1100,2270000000.0,2.50151285996e-06,0.000757484463971,0.435655375409,0.99999964181,1.25066698609e-07,-3.37976807907e-06,-0.000846385782469,-0.0077530615963,-8.77380330833e-07,2.78835630417,-0.002153,0.020744,0.075806,-0.013337,0.103464,0.093086
1101,2280000000.0,1.79577023474e-06,0.000751342857253,0.464052089525,0.999999649487,1.21180701862e-07,-3.33516106282e-06,-0.000837266279505,-0.00789786782116,-1.11579890949e-06,2.84045863152,-0.002153,0.020744,0.075806,-0.013337,0.103464,0.093086
1102,2290000000.0,1.89496418912e-06,0.0007438659668,0.492845535924,0.999999658757,1.20653158409e-07,-3.27677274276e-06,-0.000826120212995,-0.00800635293126,-9.15527323286e-07,2.87948870659,-0.002153,0.020744,0.075806,-0.013337,0.103464,0.093086
1103,2300000000.0,6.79752591992e-07,0.0007359314477,0.522112002958,0.999999668437,1.21477474579e-07,-3.2256675313e-06,-0.000814318499221,-0.00814119260758,-1.39236442509e-06,2.92794823647,-0.002153,0.020744,0.075806,-0.013337,0.103464,0.093086
1104,2310000000.0,2.28281929182e-06,0.000727005070072,0.551737060751,0.999999679173,1.2660774068e-07,-3.17378535203e-06,-0.000801026689952,-0.0082417326048,-1.21116636453e-06,2.96398091316,-0.002153,0.020744,0.075806,-0.013337,0.103464,0.093086
1105,2320000000.0,6.85339237805e-07,0.00071784981991,0.581827504514,0.999999689967,1.27929701721e-07,-3.12346043996e-06,-0.00078743683547,-0.00836725346744,-7.62939408094e-07,3.00942373276,-0.002153,0.020744,0.075806,-0.013337,0.103464,0.093086
1106,2330000000.0,2.01213795492e-06,0.000708007835765,0.612238392209,0.999999701451,1.278741672e-07,-3.06858298788e-06,-0.000772714487537,-0.00846142787486,-1.42097474076e-06,3.04302883148,-0.002153,0.020744,0.075806,-0.013337,0.103464,0.093086
1107,2340000000.0,2.13053153431e-06,0.000698165968046,0.643084153714,0.999999712584,1.28442560587e-07,-3.01838735994e-06,-0.000758170940481,-0.00858011562377,-1.38282769102e-06,3.0859618187,-0.002153,0.020744,0.075806,-0.013337,0.103464,0.093086
1108,2350000000.0,3.26586261323e-06,0.000687789986841,0.674250353853,0.999999724081,1.32658561136e-07,-2.96689395474e-06,-0.000742852567035,-0.00866764597595,-1.45912167748e-06,3.11759757996,-0.002153,0.020744,0.075806,-0.013337,0.103464,0.093086
1109,2360000000.0,3.27758892738e-06,0.000677871750664,0.70582091034,0.999999735299,1.34026237719e-07,-2.91812912812e-06,-0.000727593815446,-0.00878049992025,-2.1934508827e-06,3.15843558311,-0.002153,0.020744,0.075806,-0.013337,0.103464,0.093086
1110,2370000000.0,2.46251174119e-06,0.000667305081151,0.737689012065,0.99999974654,1.3231620366e-07,-2.8688418689e-06,-0.000711977396571,-0.00886364933103,3.32832337269e-06,3.18847870827,-0.002153,0.020744,0.075806,-0.013337,0.103464,0.093086
1111,2380000000.0,4.35971240265e-06,0.000657119788219,0.769953851375,0.999999757246,1.34585571243e-07,-2.81851718587e-06,-0.000696778201647,-0.00897283572704,1.63078300286e-06,3.22756361961,-0.002153,0.020744,0.075806,-0.013337,0.103464,0.093086
1112,2390000000.0,3.56516848043e-06,0.000646629370745,0.802500971892,0.999999767924,1.37882409879e-07,-2.77313449842e-06,-0.00068128102647,-0.00905118323862,1.91688536622e-06,3.25631284714,-0.002153,0.020744,0.075806,-0.013337,0.103464,0.093086
1113,2400000000.0,5.54650267404e-06,0.000636634882536,0.835421941898,0.999999777965,1.3632945034e-07,-2.72657821937e-06,-0.000666379811327,-0.0091563006863,1.15394584466e-06,3.29392695427,-0.002153,0.020744,0.075806,-0.013337,0.103464,0.093086
1114,2410000000.0,4.83609229107e-06,0.000626411521797,0.868625193112,0.999999787978,1.3572551133e-07,-2.68418374771e-06,-0.000651180680956,-0.00923160556704,1.30653381758e-06,3.32163333893,-0.002153,0.020744,0.075806,-0.013337,0.103464,0.093086
1115,2420000000.0,4.99421876299e-06,0.000616722158156,0.902202288514,0.999999797305,1.34667086094e-07,-2.64139898271e-06,-0.000636696754686,-0.0093331169337,1.47819514473e-06,3.35800528526,-0.002153,0.020744,0.075806,-0.013337,0.103464,0.093086
1116,2430000000.0,6.33888344836e-06,0.00060691835823,0.936038787629,0.999999806422,1.38252834125e-07,-2.59822702264e-06,-0.000622212828269,-0.00940739084035,1.72615045813e-06,3.38487362862,-0.002153,0.020744,0.075806,-0.013337,0.103464,0.093086
1117,2440000000.0,6.72954408643e-06,0.000597610487596,0.970218608173,0.999999814931,1.37297935354e-07,-2.55648269015e-06,-0.000608384548987,-0.00950562115759,1.99317923899e-06,3.42019271851,-0.002153,0.020744,0.075806,-0.013337,0.103464,0.093086
1118,2450000000.0,6.35700148521e-06,0.000588264549148,1.00467308586,0.999999823284,1.33465862751e-07,-2.51746744112e-06,-0.000594496647567,-0.00957751926035,9.15527322398e-07,3.44639325142,-0.002153,0.020744,0.075806,-0.013337,0.103464,0.093086
1119,2460000000.0,6.95899620595e-06,0.000579490675594,1.03946326091,0.999999830959,1.32819930887e-07,-2.47845425239e-06,-0.000581443259373,-0.00967317726463,8.86917120191e-07,3.48081660271,-0.002153,0.020744,0.075806,-0.013337,0.103464,0.093086
1120,2470000000.0,6.81898775667e-06,0.000570678734213,1.07452046374,0.999999838497,1.40429777584e-07,-2.44191646664e-06,-0.000568330249031,-0.0097436811775,1.73568719175e-06,3.50649046898,-0.002153,0.020744,0.075806,-0.013337,0.103464,0.093086
1121,2480000000.0,5.74617538263e-06,0.00056266784668,1.10991335863,0.999999845367,1.40269916349e-07,-2.40628454617e-06,-0.000556111243965,-0.00983722694218,1.10626217453e-06,3.54014873505,-0.002153,0.020744,0.075806,-0.013337,0.103464,0.093086
1122,2490000000.0,7.78844256644e-06,0.00055416114628,1.14555803317,0.999999852153,1.44159651494e-07,-2.36805407083e-06,-0.000543773124784,-0.00990789663047,4.87327542897e-06,3.56541657448,-0.002153,0.020744,0.075806,-0.013337,0.103464,0.093086
1123,2500000000.0,6.99056451836e-06,0.000546684255827,1.18153839447,0.999999858247,1.44653746981e-07,-2.33645372749e-06,-0.000532448222445,-0.00999795086682,1.29699708351e-06,3.59841823578,-0.002153,0.020744,0.075806,-0.013337,0.103464,0.093086
1124,2510000000.0,7.44282495901e-06,0.000538940425034,1.21775527139,0.999999864275,1.41543895493e-07,-2.30290091974e-06,-0.000521004141004,-0.0100676510483,4.58717340712e-06,3.62338376045,-0.002153,0.020744,0.075806,-0.013337,0.103464,0.093086
1125,2520000000.0,6.96228144292e-06,0.000531806959764,1.25430784037,0.999999869716,1.38154205465e-07,-2.2698683072e-06,-0.000510454129889,-0.0101580284536,4.42504870013e-06,3.65582561493,-0.002153,0.020744,0.075806,-0.013337,0.103464,0.093086
1126,2530000000.0,7.71067631433e-06,0.000524635310285,1.29110455433,0.999999875075,1.37925142973e-07,-2.23514685416e-06,-0.000499844496679,-0.0102268727496,3.54766848343e-06,3.68058300018,-0.002153,0.020744,0.075806,-0.013337,0.103464,0.093086
1127,2540000000.0,7.54746731602e-06,0.000518074026335,1.328229331,0.999999879914,1.42411299475e-07,-2.20367875503e-06,-0.000490069344284,-0.0103152403608,3.15666193251e-06,3.71255111694,-0.002153,0.020744,0.075806,-0.013337,0.103464,0.093086
1128,2550000000.0,8.61319672296e-06,0.00051147467456,1.36559825264,0.999999884656,1.39196355498e-07,-2.17207683056e-06,-0.000480294191859,-0.0103836702183,2.24113455261e-06,3.73719668388,-0.002153,0.020744,0.075806,-0.013337,0.103464,0.093086
1129,2560000000.0,8.8309225319e-06,0.00050548557191,1.40327234889,0.999999888883,1.39666526344e-07,-2.14411786276e-06,-0.000471413077283,-0.0104706799611,1.48773187836e-06,3.76876711845,-0.002153,0.020744,0.075806,-0.013337,0.103464,0.093086
1130,2570000000.0,6.44170408748e-06,0.00049945840146,1.44119820889,0.999999893085,1.41376269691e-07,-2.11589936827e-06,-0.000462412783619,-0.0105384085327,1.61170953517e-06,3.7932612896,-0.002153,0.020744,0.075806,-0.013337,0.103464,0.093086
1131,2580000000.0,7.01916460244e-06,0.000493927043859,1.47942925409,0.999999896828,1.40958330286e-07,-2.08403895274e-06,-0.00045424697082,-0.0106261605397,1.93595883435e-06,3.82436060905,-0.002153,0.020744,0.075806,-0.013337,0.103464,0.093086
1132,2590000000.0,6.89702213919e-06,0.000488357618448,1.51791206833,0.999999900557,1.40781457603e-07,-2.05321893093e-06,-0.000445961913923,-0.0106929000467,3.05175773763e-07,3.84854412079,-0.002153,0.020744,0.075806,-0.013337,0.103464,0.093086
1133,2600000000.0,7.85541744719e-06,0.000483322190117,1.55669243312,0.999999903852,1.44877800756e-07,-2.02370127123e-06,-0.000438511337888,-0.0107778655365,9.53674315962e-07,3.87912225723,-0.002153,0.020744,0.075806,-0.013337,0.103464,0.093086
1134,2610000000.0,6.22806860306e-06,0.000478210509755,1.59571693229,0.999999907143,1.46034937587e-07,-1.99613282226e-06,-0.000430941550277,-0.0108438357711,7.34329204999e-07,3.90312075615,-0.002153,0.020744,0.075806,-0.013337,0.103464,0.093086
1135,2620000000.0,7.54619860999e-06,0.00047359475866,1.63505424602,0.999999910098,1.42035726625e-07,-1.96609155806e-06,-0.000424027409967,-0.0109284315258,4.29153430126e-07,3.93323302269,-0.002153,0.020744,0.075806,-0.013337,0.103464,0.093086
1136,2630000000.0,6.34218474715e-06,0.000468902639113,1.67461280604,0.999999913031,1.41784872287e-07,-1.93878268318e-06,-0.000417053680104,-0.010993745178,1.11579890838e-06,3.95710277557,-0.002153,0.020744,0.075806,-0.013337,0.103464,0.093086
1137,2640000000.0,6.19750855435e-06,0.000464668264616,1.71447654597,0.999999915671,1.40982706953e-07,-1.9104333705e-06,-0.000410675975507,-0.0110769523308,4.86373891606e-07,3.98679852486,-0.002153,0.020744,0.075806,-0.013337,0.103464,0.093086
1138,2650000000.0,7.30297083962e-06,0.000460357754484,1.75457680151,0.99999991827,1.41142994681e-07,-1.88052401112e-06,-0.000404298270891,-0.0111430240795,1.05857850397e-06,4.01058626175,-0.002153,0.020744,0.075806,-0.013337,0.103464,0.093086
1139,2660000000.0,7.58162961034e-06,0.000456466688775,1.79497460229,0.999999920567,1.40544355709e-07,-1.85607599712e-06,-0.000398576213582,-0.0112237045541,1.90734851024e-07,4.03990507126,-0.002153,0.020744,0.075806,-0.013337,0.103464,0.093086
1140,2670000000.0,5.31694442785e-06,0.00045249948743,1.83560127873,0.999999922925,1.40032179075e-07,-1.83149795341e-06,-0.000392615765649,-0.0112893600017,7.43865939512e-07,4.0636510849,-0.002153,0.020744,0.075806,-0.013337,0.103464,0.093086
1141,2680000000.0,7.94747954203e-06,0.000448989914727,1.8765255163,0.99999992497,1.43001345543e-07,-1.8028902109e-06,-0.000387370554546,-0.011371280998,9.05990588329e-07,4.09261846542,-0.002153,0.020744,0.075806,-0.013337,0.103464,0.093086
1142,2690000000.0,8.03467068877e-06,0.000445327837962,1.91767862952,0.999999927034,1.47123175753e-07,-1.7805246425e-06,-0.00038200613187,-0.0114354239777,1.17301942648e-06,4.11636304855,-0.002153,0.020744,0.075806,-0.013337,0.103464,0.093086
1143,2700000000.0,7.29505833874e-06,0.000442085321993,1.95912928798,0.999999928867,1.46843523674e-07,-1.76049811762e-06,-0.000377178177467,-0.0115146562457,1.03950503583e-06,4.14495325089,-0.002153,0.020744,0.075806,-0.013337,0.103464,0.093086
1144,2710000000.0,5.89824319519e-06,0.000438804621801,2.00081645676,0.999999930721,1.46166584836e-07,-1.73748057603e-06,-0.000372230978986,-0.0115811703727,3.71932969312e-07,4.1687707901,-0.002153,0.020744,0.075806,-0.013337,0.103464,0.093086
1145,2720000000.0,7.55290733778e-06,0.000435829162598,2.04277829328,0.999999932331,1.45966579157e-07,-1.71277281907e-06,-0.0003678798383,-0.0116602275521,4.4822692713e-07,4.19690704346,-0.002153,0.020744,0.075806,-0.013337,0.103464,0.093086
1146,2730000000.0,6.62182735311e-06,0.00043281563558,2.08498426419,0.999999933987,1.45333567625e-07,-1.69235610575e-06,-0.000363349896519,-0.0117256324738,8.39233393446e-07,4.22090196609,-0.002153,0.020744,0.075806,-0.013337,0.103464,0.093086
1147,2740000000.0,4.94874421619e-06,0.000430069048889,2.12745726287,0.999999935452,1.40882898292e-07,-1.67037764887e-06,-0.000359296768473,-0.0118027990684,6.10351547969e-07,4.24848508835,-0.002153,0.020744,0.075806,-0.013337,0.103464,0.093086
1148,2750000000.0,6.39074064068e-06,0.000427322462201,2.1701820412,0.999999936921,1.35586590289e-07,-1.64410769377e-06,-0.000355184050897,-0.0118713956326,1.03950503583e-06,4.27276611328,-0.002153,0.020744,0.075806,-0.013337,0.103464,0.093086
1149,2760000000.0,7.069533833e-06,0.000424842932251,2.21318147667,0.999999938227,1.34195707879e-07,-1.62278061955e-06,-0.000351488557518,-0.0119451424107,2.95639039471e-07,4.29970598221,-0.002153,0.020744,0.075806,-0.013337,0.103464,0.093086
1150,2770000000.0,7.11232434369e-06,0.000422325218103,2.2564097931,0.999999939519,1.33162841087e-07,-1.60392438564e-06,-0.000347793064134,-0.0120128924027,2.28881829933e-07,4.32429504395,-0.002153,0.020744,0.075806,-0.013337,0.103464,0.093086
1151,2780000000.0,8.27805277481e-06,0.000419998192228,2.29992040133,0.999999940736,1.3664901255e-07,-1.58584996096e-06,-0.000344276404334,-0.0120858866721,9.8228451817e-07,4.35061216354,-0.002153,0.020744,0.075806,-0.013337,0.103464,0.093086
1152,2790000000.0,8.78657843728e-06,0.000417747534811,2.34366751988,0.9999999419,1.36336415713e-07,-1.57167534731e-06,-0.000340878923589,-0.012153913267,4.29153430126e-07,4.37543582916,-0.002153,0.020744,0.075806,-0.013337,0.103464,0.093086
1153,2800000000.0,8.55310094039e-06,0.000415573129427,2.38768166621,0.999999942971,1.4074742738e-07,-1.55945292024e-06,-0.000337719898465,-0.0122250411659,7.15255736417e-07,4.40123939514,-0.002153,0.020744,0.075806,-0.013337,0.103464,0.093086
1154,2810000000.0,7.66242066419e-06,0.000413513276719,2.43193232285,0.999999944013,1.45137230734e-07,-1.54710042943e-06,-0.000334620462865,-0.0122944014147,5.43594353086e-07,4.42619228363,-0.002153,0.020744,0.075806,-0.013337,0.103464,0.093086
1155,2820000000.0,7.95827859079e-06,0.000411529559642,2.47644238321,0.999999944986,1.44676348013e-07,-1.53227562311e-06,-0.000331699828357,-0.0123656373471,7.72476197675e-07,4.45162153244,-0.002153,0.020744,0.075806,-0.013337,0.103464,0.093086
1156,2830000000.0,7.53333345926e-06,0.000409622211002,2.52121184198,0.999999945931,1.41032992673e-07,-1.51940033849e-06,-0.000328838815888,-0.0124347014353,4.38690164195e-07,4.47661018372,-0.002153,0.020744,0.075806,-0.013337,0.103464,0.093086
1157,2840000000.0,6.4299854543e-06,0.000407791230828,2.56622544043,0.999999946829,1.40338557164e-07,-1.50522568099e-06,-0.000326096982464,-0.0125047992915,7.15255736417e-07,4.50178623199,-0.002153,0.020744,0.075806,-0.013337,0.103464,0.093086
1158,2850000000.0,8.46291711554e-06,0.000406036386266,2.61148318917,0.999999947642,1.39031222257e-07,-1.48858015619e-06,-0.000323593604674,-0.0125748924911,1.0776519721e-06,4.52674722672,-0.002153,0.020744,0.075806,-0.013337,0.103464,0.093086
1159,2860000000.0,9.77504571154e-06,0.000404357910153,2.65700033631,0.999999948449,1.43230440008e-07,-1.47856829996e-06,-0.000321090194364,-0.0126427309588,1.5258788677e-07,4.55175495148,-0.002153,0.020744,0.075806,-0.013337,0.103464,0.093086
1160,2870000000.0,8.50143017317e-06,0.000402755802501,2.70276161784,0.999999949231,1.4370774154e-07,-1.47310654547e-06,-0.000318646406092,-0.0127107137814,4.67300395268e-07,4.57665634155,-0.002153,0.020744,0.075806,-0.013337,0.103464,0.093086
1161,2880000000.0,8.41435284116e-06,0.000401191762641,2.74878230309,0.99999994995,1.43586799783e-07,-1.46413362201e-06,-0.000316381418909,-0.0127806775272,3.5285950073e-07,4.60154771805,-0.002153,0.020744,0.075806,-0.013337,0.103464,0.093086
1162,2890000000.0,9.57741399432e-06,0.000399742159058,2.79503950395,0.999999950664,1.38581949971e-07,-1.44722689904e-06,-0.000314116464243,-0.0128518342972,1.36375422199e-06,4.62637901306,-0.002153,0.020744,0.075806,-0.013337,0.103464,0.093086
1163,2900000000.0,8.1547309847e-06,0.000398330739692,2.84154083919,0.999999951318,1.41659620756e-07,-1.43305352468e-06,-0.000312030278143,-0.0129200285301,1.11579890838e-06,4.65118265152,-0.002153,0.020744,0.075806,-0.013337,0.103464,0.093086
1164,2910000000.0,7.9185862063e-06,0.000396957388137,2.88830157814,0.999999951948,1.36451093868e-07,-1.41627683392e-06,-0.000310003746599,-0.0129897398874,8.39233393446e-07,4.67594528198,-0.002153,0.020744,0.075806,-0.013337,0.103464,0.093086
1165,2920000000.0,7.00403854026e-06,0.000395660405044,2.93530645678,0.999999952537,1.38811053096e-07,-1.39950251177e-06,-0.000308096394098,-0.0130585581064,5.24520884948e-07,4.7006778717,-0.002153,0.020744,0.075806,-0.013337,0.103464,0.093086
1166,2930000000.0,7.31842926882e-06,0.000394439790384,2.9825554804,0.999999953105,1.36240309145e-07,-1.3812962702e-06,-0.000306248631129,-0.0131277544424,5.05447359522e-07,4.72537755966,-0.002153,0.020744,0.075806,-0.013337,0.103464,0.093086
1167,2940000000.0,6.93321701561e-06,0.000393257127143,3.03005627307,0.999999953651,1.33769407717e-07,-1.36400033623e-06,-0.000304460490195,-0.0131961302832,8.77380329278e-07,4.75004911423,-0.002153,0.020744,0.075806,-0.013337,0.103464,0.093086
1168,2950000000.0,5.86960190319e-06,0.00039211276453,3.07780120542,0.999999954158,1.31174969831e-07,-1.34657435208e-06,-0.000302791560824,-0.0132648227736,8.29696659377e-07,4.7746925354,-0.002153,0.020744,0.075806,-0.013337,0.103464,0.093086
1169,2960000000.0,7.94226645695e-06,0.000391044653938,3.12579028805,0.999999954644,1.32621329474e-07,-1.327199044e-06,-0.000301182253483,-0.013333901763,3.43322738239e-07,4.79931020737,-0.002153,0.020744,0.075806,-0.013337,0.103464,0.093086
1170,2970000000.0,7.42918685148e-06,0.000390014727596,3.17402350507,0.999999955091,1.34944613428e-07,-1.31302549566e-06,-0.000299692125193,-0.013400958851,1.09672544024e-06,4.82390356064,-0.002153,0.020744,0.075806,-0.013337,0.103464,0.093086
1171,2980000000.0,8.12384555715e-06,0.000389022869047,3.22250849643,0.999999955537,1.37201694062e-07,-1.29846180918e-06,-0.000298202029413,-0.0134695023298,6.008148139e-07,4.84847354889,-0.002153,0.020744,0.075806,-0.013337,0.103464,0.093086
1172,2990000000.0,6.21156000946e-06,0.000388069194738,3.27124525154,0.999999955963,1.35308774463e-07,-1.28610752398e-06,-0.000296771490654,-0.0135371703655,4.86373891384e-07,4.87302112579,-0.002153,0.020744,0.075806,-0.013337,0.103464,0.093086
1173,3000000000.0,7.4567542292e-06,0.000387153704647,3.32021852757,0.999999956333,1.37092025621e-07,-1.26959316554e-06,-0.000295519818001,-0.013606434688,5.7220455485e-07,4.89754772186,-0.002153,0.020744,0.075806,-0.013337,0.103464,0.093086
1174,3010000000.0,6.11620430035e-06,0.000386314466599,3.36943593798,0.999999956737,1.39373092067e-07,-1.2568500099e-06,-0.000294148901272,-0.013673665002,6.29425016108e-07,4.92205381393,-0.002153,0.020744,0.075806,-0.013337,0.103464,0.093086
1175,3020000000.0,6.00459275901e-06,0.000385475228541,3.41889749337,0.99999995707,1.36724037147e-07,-1.24098454524e-06,-0.000293016407677,-0.0137425502762,4.86373891384e-07,4.94654035568,-0.002153,0.020744,0.075806,-0.013337,0.103464,0.093086
1176,3030000000.0,7.12191961227e-06,0.000384712242518,3.46860319374,0.999999957436,1.33950234849e-07,-1.22550914566e-06,-0.000291764702518,-0.0138105414808,9.63211049587e-07,4.97100830078,-0.002153,0.020744,0.075806,-0.013337,0.103464,0.093086
1177,3040000000.0,7.53964349443e-06,0.000383949372917,3.51856066316,0.999999957748,1.31656355262e-07,-1.21354491911e-06,-0.000290691830958,-0.0138776879758,1.020431454e-06,4.99545812607,-0.002153,0.020744,0.075806,-0.013337,0.103464,0.093086
1178,3050000000.0,7.30016458661e-06,0.00038326263893,3.5687546429,0.99999995806,1.32889971027e-07,-1.20275205295e-06,-0.000289618959393,-0.013945187442,9.44137524606e-07,5.01989030838,-0.002153,0.020744,0.075806,-0.013337,0.103464,0.093086
1179,3060000000.0,6.40348290304e-06,0.000311622628946,3.61918513296,0.999999958404,1.35284148772e-07,-1.19208954025e-06,-0.000288426843753,-0.0140133844689,0.00708382576704,5.04440832138,-0.002153,0.020744,0.075806,-0.013337,0.103464,0.093086
1180,3070000000.0,6.7145395235e-06,0.000252647441812,3.66986739737,0.99999995873,1.32763021798e-07,-1.1790849494e-06,-0.000287294382665,-0.0140811400488,0.00582301104441,5.06857633591,-0.002153,0.020744,0.075806,-0.013337,0.103464,0.093086
1181,3080000000.0,6.32599315864e-06,0.00020450598095,3.72080143082,0.99999995873,1.32763021798e-07,-1.1790849494e-06,-0.000287294382665,-0.0141496444121,0.00475028995424,5.09336185455,-0.002153,0.020744,0.075806,-0.013337,0.103464,0.093086
1182,3090000000.0,7.16638519194e-06,0.000165443518203,3.77197960925,0.999999959293,1.36991425648e-07,-1.15073779855e-06,-0.000285327408114,-0.0142157766968,0.00383759499527,5.11703157425,-0.002153,0.020744,0.075806,-0.013337,0.103464,0.093086
1183,3100000000.0,7.32837435535e-06,0.000134277390305,3.82340192737,0.999999959293,1.36991425648e-07,-1.15073779855e-06,-0.000285327408114,-0.0142848789692,0.00306488038041,5.14219665527,-0.002153,0.020744,0.075806,-0.013337,0.103464,0.093086
1184,3110000000.0,8.76170208386e-06,0.000109481858086,3.87505313174,0.999999959785,1.37706564429e-07,-1.05828135499e-06,-0.000283598889212,-0.0143489418551,0.00241045001894,5.16536188126,-0.002153,0.020744,0.075806,-0.013337,0.103464,0.093086
1185,3120000000.0,7.96968719996e-06,8.92258249188e-05,3.92681877128,0.999999960525,1.37671721412e-07,-1.28142473099e-06,-0.000280976267281,-0.0143789844587,0.00185855862219,5.17683172226,-0.002153,0.020744,0.075806,-0.013337,0.103464,0.093086
1186,3130000000.0,8.83061250079e-06,7.22123077175e-05,3.97867596851,0.999999961788,1.37010698509e-07,-9.92481387241e-07,-0.000276446325411,-0.0144057767466,0.0013952255249,5.18684911728,-0.002153,0.020744,0.075806,-0.013337,0.103464,0.093086
1187,3140000000.0,7.25486111364e-06,5.3176889196e-05,4.03003724641,0.99999996539,1.4044465052e-07,-8.38126376024e-07,-0.000263094890282,-0.0142677724361,0.00100646016654,5.13682985306,-0.002153,0.020744,0.075806,-0.013337,0.103464,0.093086
1188,3150000000.0,7.20484937489e-06,3.87192703748e-05,4.08153585817,0.999999968381,1.4010941396e-07,-8.58930610914e-07,-0.000251471974015,-0.0143079906702,0.000683402991853,5.15153121948,-0.002153,0.020744,0.075806,-0.013337,0.103464,0.093086
1189,3160000000.0,7.812040419e-06,2.44904076716e-05,4.13279795962,0.999999971946,1.39405023358e-07,-8.66860673576e-07,-0.000236868849854,-0.0142403738573,0.000419235206208,5.12711286545,-0.002153,0.020744,0.075806,-0.013337,0.103464,0.093086
1190,3170000000.0,7.93162940482e-06,1.4839228232e-05,4.18423553647,0.999999974685,1.35177511795e-07,-9.04568850213e-07,-0.000225007526636,-0.0142885241657,0.000193233485333,5.14443302155,-0.002153,0.020744,0.075806,-0.013337,0.103464,0.093086
1191,3180000000.0,6.90708035478e-06,4.50143124553e-06,4.23539845088,0.99999997789,1.38738438016e-07,-9.29924862558e-07,-0.000210285174559,-0.0142127191648,1.59835817604e-05,5.11713266373,-0.002153,0.020744,0.075806,-0.013337,0.103464,0.093086
1192,3190000000.0,7.19627005097e-06,-1.29698310047e-06,4.2867749928,0.999999980159,1.41515830721e-07,-9.51510051861e-07,-0.000199198710196,-0.014273439534,-0.000134286878166,5.13858270645,-0.002153,0.020744,0.075806,-0.013337,0.103464,0.093086
1193,3200000000.0,6.23532126198e-06,-7.85826705751e-06,4.33791501911,0.999999982719,1.39748544681e-07,-9.53328369802e-07,-0.000185906880596,-0.0142077775672,-0.000248422613368,5.11496782303,-0.002153,0.020744,0.075806,-0.013337,0.103464,0.093086
1194,3210000000.0,4.61716969014e-06,-1.06429215521e-05,4.38929155574,0.999999984383,1.37234048292e-07,-9.581380222e-07,-0.000176727768751,-0.0142747182399,-0.000340890866938,5.13876390457,-0.002153,0.020744,0.075806,-0.013337,0.103464,0.093086
1195,3220000000.0,3.59262063299e-06,-1.42669305205e-05,4.44045447014,0.99999998638,1.34199015622e-07,-9.53714660468e-07,-0.000165045246491,-0.0142163448036,-0.000415554037319,5.11757564545,-0.002153,0.020744,0.075806,-0.013337,0.103464,0.093086
1196,3230000000.0,5.64075097742e-06,-1.44195510074e-05,4.49188442292,0.999999987525,1.34813951391e-07,-9.49942731254e-07,-0.000157952304531,-0.0142906485125,-0.00046998023754,5.14389705658,-0.002153,0.020744,0.075806,-0.013337,0.103464,0.093086
1197,3240000000.0,4.3830009453e-06,-1.57165341115e-05,4.54313126034,0.999999988986,1.32509770712e-07,-9.371974663e-07,-0.000148415557943,-0.0142380129546,-0.00051024433924,5.12520456314,-0.002153,0.020744,0.075806,-0.013337,0.103464,0.093086
1198,3250000000.0,6.17673019221e-06,-1.37710012496e-05,4.59465276551,0.999999989734,1.2941390759e-07,-9.28873967465e-07,-0.00014328955807,-0.0143182426691,-0.000538253749256,5.15378522873,-0.002153,0.020744,0.075806,-0.013337,0.103464,0.093086
1199,3260000000.0,4.55857862747e-06,-1.33132562077e-05,4.64602930213,0.99999999079,1.26632166197e-07,-9.14958637188e-07,-0.00013571976982,-0.0142719317228,-0.000556144688745,5.13739442825,-0.002153,0.020744,0.075806,-0.013337,0.103464,0.093086
1200,3270000000.0,4.02096481622e-06,-9.76561569743e-06,4.6977033893,0.999999991213,1.31116737023e-07,-9.0780678913e-07,-0.000132560720163,-0.0143580278382,-0.000565052032472,5.16807222366,-0.002153,0.020744,0.075806,-0.013337,0.103464,0.093086
1201,3280000000.0,5.75109380563e-06,-7.97270331532e-06,4.74924778256,0.999999991971,1.23179614175e-07,-8.91160263083e-07,-0.000126719467132,-0.0143184363842,-0.000567512528506,5.15381574631,-0.002153,0.020744,0.075806,-0.013337,0.103464,0.093086
1202,3290000000.0,4.68347775495e-06,-3.28058377264e-06,4.80111260385,0.999999992143,1.18782156555e-07,-8.84787722644e-07,-0.000125348558488,-0.0144082419574,-0.000564947142267,5.18640756607,-0.002153,0.020744,0.075806,-0.013337,0.103464,0.093086
1203,3300000000.0,5.90480458484e-06,-4.95812859214e-07,4.85284010187,0.999999992658,1.18769516499e-07,-8.71393399493e-07,-0.000121176234886,-0.0143741397187,-0.000557489402127,5.17410802841,-0.002153,0.020744,0.075806,-0.013337,0.103464,0.093086
1204,3310000000.0,6.15092728395e-06,4.99736051651e-06,4.90491855068,0.999999992658,1.18769516499e-07,-8.71393399493e-07,-0.000121176234886,-0.0144690806046,-0.000546073890292,5.20843267441,-0.002153,0.020744,0.075806,-0.013337,0.103464,0.093086
1205,3320000000.0,4.74410979123e-06,8.50681680475e-06,4.95690544181,0.999999992972,1.22887802045e-07,-8.59430158207e-07,-0.000118553629153,-0.0144395632669,-0.000532398233191,5.19791412354,-0.002153,0.020744,0.075806,-0.013337,0.103464,0.093086
1206,3330000000.0,6.19797077661e-06,1.45721714908e-05,5.00923566497,0.999999992809,1.23090018844e-07,-8.56439495933e-07,-0.000119924537803,-0.0145401787013,-0.000516004569364,5.23380374908,-0.002153,0.020744,0.075806,-0.013337,0.103464,0.093086
1207,3340000000.0,4.07035023642e-06,1.85013050249e-05,5.06148195452,0.999999993,1.27249151105e-07,-8.46947077748e-07,-0.000118315214142,-0.0145147806033,-0.000497875211295,5.22489976883,-0.002153,0.020744,0.075806,-0.013337,0.103464,0.093086
1208,3350000000.0,4.71860781559e-06,2.49099684844e-05,5.11410209355,0.999999992708,1.26252037658e-07,-8.45906970248e-07,-0.000120759002522,-0.014619551599,-0.000478868460051,5.26218557358,-0.002153,0.020744,0.075806,-0.013337,0.103464,0.093086
1209,3360000000.0,5.57886629338e-06,2.90680909494e-05,5.16664593894,0.999999992708,1.26252037658e-07,-8.45906970248e-07,-0.000120759002522,-0.0145984729752,-0.000458850845463,5.254737854,-0.002153,0.020744,0.075806,-0.013337,0.103464,0.093086
1210,3370000000.0,5.33672009695e-06,3.56674427096e-05,5.2195865113,0.999999992388,1.29559757367e-07,-8.3277395535e-07,-0.000123381608252,-0.0147054465488,-0.000439462659416,5.29326963425,-0.002153,0.020744,0.075806,-0.013337,0.103464,0.093086
1211,3380000000.0,5.28537471922e-06,3.99780692533e-05,5.27245841939,0.999999992388,1.29559757367e-07,-8.3277395535e-07,-0.000123381608252,-0.0146882114932,-0.000419521325967,5.28712749481,-0.002153,0.020744,0.075806,-0.013337,0.103464,0.093086
1212,3390000000.0,6.01776583053e-06,4.66156052319e-05,5.32573468912,0.999999991872,1.20742471688e-07,-8.3095284259e-07,-0.000127494326078,-0.014798280783,-0.000398626318202,5.32676029205,-0.002153,0.020744,0.075806,-0.013337,0.103464,0.093086
1213,3400000000.0,6.8985575794e-06,5.08881639689e-05,5.37895755329,0.999999991872,1.20742471688e-07,-8.3095284259e-07,-0.000127494326078,-0.0147839877754,-0.000379199977034,5.32178878784,-0.002153,0.020744,0.075806,-0.013337,0.103464,0.093086
1214,3410000000.0,6.67694465051e-06,5.74875157255e-05,5.43257714445,0.99999999119,1.21816005894e-07,-8.34334582922e-07,-0.000132739537532,-0.01489629969,-0.000359935744201,5.3623919487,-0.002153,0.020744,0.075806,-0.013337,0.103464,0.093086
1215,3420000000.0,6.56133217447e-06,6.17599580401e-05,5.48615858878,0.999999991023,1.18569771279e-07,-8.31603519658e-07,-0.000133991234614,-0.0148852132261,-0.000341434468283,5.35846805573,-0.002153,0.020744,0.075806,-0.013337,0.103464,0.093086
1216,3430000000.0,5.23731456425e-06,6.82068057323e-05,5.54017490693,0.999999990364,1.23208127922e-07,-8.40967409821e-07,-0.000138819205574,-0.0150002762675,-0.000321273808369,5.39991950989,-0.002153,0.020744,0.075806,-0.013337,0.103464,0.093086
1217,3440000000.0,4.0616975916e-06,7.22885597462e-05,5.59413781951,0.999999990148,1.23159150489e-07,-8.42658076317e-07,-0.000140368923444,-0.0149924270809,-0.000303859706038,5.39692687988,-0.002153,0.020744,0.075806,-0.013337,0.103464,0.093086
1218,3450000000.0,3.58501676345e-06,7.85827869514e-05,5.64853561121,0.999999989415,1.19157418765e-07,-8.47599535669e-07,-0.000145494923325,-0.015110434033,-0.000286846159725,5.43911981583,-0.002153,0.020744,0.075806,-0.013337,0.103464,0.093086
1219,3460000000.0,5.0792774644e-06,8.25119204855e-05,5.70291052011,0.999999989153,1.10313165769e-07,-8.39276067255e-07,-0.000147283064338,-0.0151045573875,-0.000269937503618,5.43696022034,-0.002153,0.020744,0.075806,-0.013337,0.103464,0.093086
1220,3470000000.0,3.50019196205e-06,8.86154593829e-05,5.75770503879,0.999999988367,1.14210074398e-07,-8.469494307e-07,-0.000152528275774,-0.0152227766812,-0.000254154205323,5.47979307175,-0.002153,0.020744,0.075806,-0.013337,0.103464,0.093086
1221,3480000000.0,1.94230655026e-06,9.23157203871e-05,5.81249192811,0.999999988065,1.13338228358e-07,-8.5137078315e-07,-0.000154495234128,-0.0152194984257,-0.000238971711952,5.47837352753,-0.002153,0.020744,0.075806,-0.013337,0.103464,0.093086
1222,3490000000.0,2.99069854393e-06,9.81522025505e-05,5.86771370183,0.999999987232,1.15023326475e-07,-8.53582283411e-07,-0.00015980003509,-0.0153412604704,-0.000224332805375,5.5217590332,-0.002153,0.020744,0.075806,-0.013337,0.103464,0.093086
1223,3500000000.0,4.08149072229e-06,0.000101585406803,5.92292021683,0.999999986906,1.17077251338e-07,-8.40969243687e-07,-0.000161826599224,-0.0153387486935,-0.00021012306388,5.5209941864,-0.002153,0.020744,0.075806,-0.013337,0.103464,0.093086
1224,3510000000.0,2.03533640786e-06,0.00010715494863,5.9785692297,0.999999986023,1.09250042679e-07,-8.45259786997e-07,-0.000167191022227,-0.015460123308,-0.000198011388421,5.56484651566,-0.002153,0.020744,0.075806,-0.013337,0.103464,0.093086
1225,3520000000.0,1.91772345914e-06,0.000110359280367,6.0342106185,0.999999985682,1.10958026711e-07,-8.45130259275e-07,-0.000169217570102,-0.0154603123665,-0.000184974662262,5.56466054916,-0.002153,0.020744,0.075806,-0.013337,0.103464,0.093086
1226,3530000000.0,2.41424629976e-06,0.000115699833259,6.09031740388,0.999999984781,1.12514346617e-07,-8.53713563065e-07,-0.000174462781523,-0.0155837005004,-0.00017405509425,5.60890293121,-0.002153,0.020744,0.075806,-0.013337,0.103464,0.093086
1227,3540000000.0,2.95316931442e-06,0.000118675292462,6.14640893052,0.999999984436,1.15522186206e-07,-8.43701452979e-07,-0.000176429739867,-0.0155844390392,-0.000162982934854,5.6092247963,-0.002153,0.020744,0.075806,-0.013337,0.103464,0.093086
1228,3550000000.0,2.26248711854e-06,0.000123672536576,6.20294296034,0.999999983497,1.06024370672e-07,-8.40709476535e-07,-0.000181674951291,-0.015708418563,-0.00015198707115,5.65379190445,-0.002153,0.020744,0.075806,-0.013337,0.103464,0.093086
1229,3560000000.0,1.52940473086e-06,0.000126380939035,6.25949224889,0.999999983148,1.08420769751e-07,-8.35508631503e-07,-0.000183582287595,-0.0157111417502,-0.000142602919369,5.65456104279,-0.002153,0.020744,0.075806,-0.013337,0.103464,0.093086
1230,3570000000.0,1.47405841133e-06,0.000131111242803,6.31648404591,0.999999982205,1.09380905278e-07,-8.43701700393e-07,-0.000188648681653,-0.0158364903182,-0.000133733745316,5.69939565659,-0.002153,0.020744,0.075806,-0.013337,0.103464,0.093086
1231,3580000000.0,1.37631191777e-06,0.000133590772744,6.37349110166,0.999999981867,1.16244482984e-07,-8.3147970964e-07,-0.000190436822639,-0.0158398393542,-0.000124282829348,5.70056152344,-0.002153,0.020744,0.075806,-0.013337,0.103464,0.093086
1232,3590000000.0,-1.46400900292e-08,0.000138015835546,6.43096354869,0.999999980924,1.26632529629e-07,-8.18738663255e-07,-0.000195324415589,-0.0159654933959,-0.000116109848023,5.74560832977,-0.002153,0.020744,0.075806,-0.013337,0.103464,0.093086
1233,3600000000.0,5.22949289206e-07,0.000140266492961,6.48842837164,0.999999980596,1.25895255831e-07,-8.10286313324e-07,-0.000196993345013,-0.01597016491,-0.000109138483822,5.74712467194,-0.002153,0.020744,0.075806,-0.013337,0.103464,0.093086
1234,3610000000.0,-2.11466737454e-07,0.00014427187852,6.54635095651,0.999999979658,1.29769001045e-07,-8.15359134265e-07,-0.000201702104356,-0.0160959716886,-0.000101509089291,5.79234170914,-0.002153,0.020744,0.075806,-0.013337,0.103464,0.093086
1235,3620000000.0,-9.88282952363e-07,0.00014648446813,6.6042888001,0.999999979332,1.29107166069e-07,-7.99234600779e-07,-0.000203311427995,-0.0161013547331,-9.85336300814e-05,5.79416561127,-0.002153,0.020744,0.075806,-0.013337,0.103464,0.093086
1236,3630000000.0,-1.1721634614e-06,0.000150260981172,6.66269966963,0.999999978401,1.27965494257e-07,-7.84540747645e-07,-0.000207841386244,-0.016228152439,-8.73756362143e-05,5.83951711655,-0.002153,0.020744,0.075806,-0.013337,0.103464,0.093086
1237,3640000000.0,-3.28458532906e-06,0.000152206514027,6.72111816322,0.999999978115,1.2703167418e-07,-7.73617606087e-07,-0.000209212286748,-0.016233868897,-8.60118816499e-05,5.841609478,-0.002153,0.020744,0.075806,-0.013337,0.103464,0.093086
1238,3650000000.0,-2.8331299724e-06,0.000155715970321,6.77998679995,0.999999977195,1.29280883499e-07,-7.75829268496e-07,-0.000213563427638,-0.0163606535643,-7.51972183943e-05,5.8870549202,-0.002153,0.020744,0.075806,-0.013337,0.103464,0.093086
1239,3660000000.0,-2.44527487325e-06,0.00015747069847,6.83887832478,0.99999997694,1.28362407759e-07,-7.57363949e-07,-0.000214755527047,-0.0163672473282,-7.46917721712e-05,5.88939380646,-0.002153,0.020744,0.075806,-0.013337,0.103464,0.093086
1240,3670000000.0,-1.44328399188e-06,0.000160751398647,6.89823524617,0.999999976035,1.27361067359e-07,-7.3902902481e-07,-0.000218927850587,-0.0164941251278,-6.50691945339e-05,5.93490505219,-0.002153,0.020744,0.075806,-0.013337,0.103464,0.093086
1241,3680000000.0,-5.04893382214e-07,0.000162277254274,6.95761505567,0.999999975813,1.26890024266e-07,-7.2797589179e-07,-0.000219941132645,-0.0165006890893,-6.50024376228e-05,5.93746089935,-0.002153,0.020744,0.075806,-0.013337,0.103464,0.093086
1242,3690000000.0,-8.17308084322e-07,0.000165329081934,7.0174449977,0.999999974926,1.26627846986e-07,-7.34738269781e-07,-0.000223934638828,-0.0166271366179,-5.64575166218e-05,5.98300933838,-0.002153,0.020744,0.075806,-0.013337,0.103464,0.093086
1243,3700000000.0,-1.19332304394e-06,0.000166664132843,7.07729782782,0.999999974926,1.26627846986e-07,-7.34738269781e-07,-0.000223934638828,-0.0166348461062,-5.64861293255e-05,5.98576116562,-0.002153,0.020744,0.075806,-0.013337,0.103464,0.093086
1244,3710000000.0,-9.55202228425e-07,0.000169525155798,7.13761605452,0.999999973874,1.29523392955e-07,-7.01450007135e-07,-0.000228583792367,-0.0167620722204,-4.79888913114e-05,6.03132677078,-0.002153,0.020744,0.075806,-0.013337,0.103464,0.093086
1245,3720000000.0,1.12665958696e-06,0.000170669634821,7.19795717461,0.999999973874,1.29523392955e-07,-7.01450007135e-07,-0.000228583792367,-0.0167697966099,-4.92000581294e-05,6.03425168991,-0.002153,0.020744,0.075806,-0.013337,0.103464,0.093086
1246,3730000000.0,7.97464849711e-09,0.000173339853056,7.25876368067,0.999999972898,1.20760178968e-07,-6.97937509841e-07,-0.000232815721681,-0.0168964229524,-4.22000885023e-05,6.07981348038,-0.002153,0.020744,0.075806,-0.013337,0.103464,0.093086
1247,3740000000.0,-1.17431055813e-06,0.000174293527383,7.31959307483,0.999999972898,1.20760178968e-07,-6.97937509841e-07,-0.000232815721681,-0.0169050339609,-4.26292426718e-05,6.08289575577,-0.002153,0.020744,0.075806,-0.013337,0.103464,0.093086
1248,3750000000.0,1.64881299725e-07,0.000176734989511,7.38088787085,0.999999971946,1.11347948528e-07,-6.66336739896e-07,-0.0002368688499,-0.0170321073383,-3.58390789188e-05,6.12843322754,-0.002153,0.020744,0.075806,-0.013337,0.103464,0.093086
1249,3760000000.0,1.44047286454e-06,0.000177574227559,7.44220555498,0.999999971946,1.11347948528e-07,-6.66336739896e-07,-0.0002368688499,-0.017040066421,-3.82518774145e-05,6.13165712357,-0.002153,0.020744,0.075806,-0.013337,0.103464,0.093086
1250,3770000000.0,-4.42082129126e-07,0.000179863069208,7.50397336634,0.999999971093,1.24239471877e-07,-6.72582019412e-07,-0.00024044511558,-0.0171659477055,-3.20720682812e-05,6.17716169357,-0.002153,0.020744,0.075806,-0.013337,0.103464,0.093086
1251,3780000000.0,-5.23296311172e-07,0.000180549686771,7.56577932982,0.999999971093,1.24239471877e-07,-6.72582019412e-07,-0.00024044511558,-0.0171759668738,-3.39603429893e-05,6.18051338196,-0.002153,0.020744,0.075806,-0.013337,0.103464,0.093086
1252,3790000000.0,3.08253831349e-08,0.000182724092159,7.62804306051,0.999999970285,1.2464346727e-07,-6.3981316889e-07,-0.000243782974394,-0.0173033364117,-2.7675627281e-05,6.22596597672,-0.002153,0.020744,0.075806,-0.013337,0.103464,0.093086
1253,3800000000.0,5.00146725813e-07,0.000183258089232,7.69033730867,0.999999970285,1.2464346727e-07,-6.3981316889e-07,-0.000243782974394,-0.0173127092421,-2.99262992494e-05,6.22943592072,-0.002153,0.020744,0.075806,-0.013337,0.103464,0.093086
1254,3810000000.0,-2.18867850776e-06,0.000185279874128,7.75308168406,0.999999969554,1.22168609173e-07,-6.44754339862e-07,-0.000246763214762,-0.0174385644495,-2.31933590844e-05,6.27482843399,-0.002153,0.020744,0.075806,-0.013337,0.103464,0.093086
1255,3820000000.0,-3.09736302384e-06,0.000185699551359,7.81587184094,0.999999969554,1.22168609173e-07,-6.44754339862e-07,-0.000246763214762,-0.0174479950219,-2.53009784501e-05,6.278403759,-0.002153,0.020744,0.075806,-0.013337,0.103464,0.093086
1256,3830000000.0,-3.32831147176e-06,0.000187568715777,7.87910450629,0.999999968873,1.19835874834e-07,-6.13675212702e-07,-0.000249505032002,-0.0175751615316,-1.97410572591e-05,6.32372522354,-0.002153,0.020744,0.075806,-0.013337,0.103464,0.093086
1257,3840000000.0,-1.75791910451e-06,0.000187873840332,7.94237532377,0.999999968873,1.19835874834e-07,-6.13675212702e-07,-0.000249505032002,-0.0175846815109,-2.2134780012e-05,6.32740020752,-0.002153,0.020744,0.075806,-0.013337,0.103464,0.093086
1258,3850000000.0,-1.45953212893e-06,0.000189590500662,8.00610390316,0.999999968261,1.24789760247e-07,-6.20438684373e-07,-0.000251948820318,-0.0177101772279,-1.65748588197e-05,6.37264204025,-0.002153,0.020744,0.075806,-0.013337,0.103464,0.093086
1259,3860000000.0,6.61395752388e-07,0.000189781188965,8.06986300531,0.999999968261,1.24789760247e-07,-6.20438684373e-07,-0.000251948820318,-0.0177205018699,-1.96266173593e-05,6.37640714645,-0.002153,0.020744,0.075806,-0.013337,0.103464,0.093086
1260,3870000000.0,-4.39423221366e-07,0.000191459665068,8.13409512279,0.999999967687,1.3335093918e-07,-5.980747525e-07,-0.000254213791286,-0.0178452692926,-1.50012965623e-05,6.42156219482,-0.002153,0.020744,0.075806,-0.013337,0.103464,0.093086
1261,3880000000.0,-1.60384245618e-06,0.000191536033521,8.19835012836,0.999999967687,1.3335093918e-07,-5.980747525e-07,-0.000254213791286,-0.0178552623838,-1.80721272054e-05,6.4254117012,-0.002153,0.020744,0.075806,-0.013337,0.103464,0.093086
1262,3890000000.0,-2.04384448921e-07,0.000193100073368,8.26305527708,0.999999967186,1.3005704369e-07,-6.16019296629e-07,-0.000256180749598,-0.017980882898,-1.27124785649e-05,6.47047281265,-0.002153,0.020744,0.075806,-0.013337,0.103464,0.093086
1263,3900000000.0,1.0678730149e-06,0.000193100073377,8.32780620198,0.999999967186,1.3005704369e-07,-6.16019296629e-07,-0.000256180749598,-0.0179914347827,-1.54495228357e-05,6.47440052032,-0.002153,0.020744,0.075806,-0.013337,0.103464,0.093086
1264,3910000000.0,1.11052526108e-06,0.000194549560542,8.39299963006,0.999999966695,1.27860429966e-07,-6.05876079196e-07,-0.00025808810213,-0.0181162729859,-1.05285644181e-05,6.51936244965,-0.002153,0.020744,0.075806,-0.013337,0.103464,0.093086
1265,3920000000.0,-8.60164210081e-07,0.000194473308511,8.45823119967,0.999999966695,1.27860429966e-07,-6.05876079196e-07,-0.00025808810213,-0.0181270241737,-1.35231011886e-05,6.52336549759,-0.002153,0.020744,0.075806,-0.013337,0.103464,0.093086
1266,3930000000.0,-2.88176536856e-07,0.000195846660063,8.52392054178,0.999999966309,1.35355231079e-07,-6.23823341261e-07,-0.000259578214174,-0.018251715228,-8.12530470373e-06,6.56822443008,-0.002153,0.020744,0.075806,-0.013337,0.103464,0.093086
1267,3940000000.0,1.99010766977e-07,0.000195694039574,8.58964040135,0.999999966309,1.35355231079e-07,-6.23823341261e-07,-0.000259578214174,-0.0182629991323,-1.17206573131e-05,6.57229471207,-0.002153,0.020744,0.075806,-0.013337,0.103464,0.093086
1268,3950000000.0,-5.6460722675e-07,0.000196991022682,8.65581039346,0.999999965953,1.33656077039e-07,-6.16150890864e-07,-0.000260949114661,-0.0183875765651,-6.74247712684e-06,6.61704444885,-0.002153,0.020744,0.075806,-0.013337,0.103464,0.093086
1269,3960000000.0,-1.45542576035e-06,0.000196762150162,8.72202616176,0.999999965953,1.33656077039e-07,-6.16150890864e-07,-0.000260949114661,-0.0183987803757,-1.07860560101e-05,6.6211810112,-0.002153,0.020744,0.075806,-0.013337,0.103464,0.093086
1270,3970000000.0,2.38833031574e-07,0.000197944696987,8.78868444384,0.99999996561,1.26415900525e-07,-6.27072287207e-07,-0.000262260425622,-0.018523549661,-5.41686995525e-06,6.66581964493,-0.002153,0.020744,0.075806,-0.013337,0.103464,0.093086
1271,3980000000.0,-8.0249897394e-08,0.000197448767723,8.85538086744,0.99999996561,1.26415900525e-07,-6.27072287207e-07,-0.000262260425622,-0.0185346119106,-9.26971370196e-06,6.67001819611,-0.002153,0.020744,0.075806,-0.013337,0.103464,0.093086
1272,3990000000.0,-1.67133821805e-06,0.000198822119266,8.92253505294,0.999999965328,1.36080210933e-07,-6.22393629746e-07,-0.000263333297189,-0.0186587441713,-9.26017765002e-06,6.71454048157,-0.002153,0.020744,0.075806,-0.013337,0.103464,0.093086
1273,4000000000.0,-3.34722690809e-06,0.000198288005775,8.98971975591,0.999999965594,1.38696376217e-07,-6.19143249891e-07,-0.000262320031398,-0.0186705905944,-8.08715776701e-06,6.71880292892,-0.002153,0.020744,0.075806,-0.013337,0.103464,0.093086
1274,4010000000.0,-2.45923835607e-06,0.000199584988875,9.05735460201,0.999999965107,1.40735484655e-07,-6.22655047133e-07,-0.000264167761885,-0.0187949575484,-7.92503306091e-06,6.76320314407,-0.002153,0.020744,0.075806,-0.013337,0.103464,0.093086
1275,4020000000.0,-1.69845034392e-06,0.000199012807569,9.12503522431,0.999999965359,1.38366802294e-07,-6.14852060765e-07,-0.000263214101879,-0.0188068393618,-7.01904264133e-06,6.76752233505,-0.002153,0.020744,0.075806,-0.013337,0.103464,0.093086
1276,4030000000.0,-2.14606746241e-06,0.000200271606447,9.19315072041,0.999999964887,1.32478626069e-07,-6.12250004139e-07,-0.000265002226589,-0.0189298707992,-6.3896177398e-06,6.81180477142,-0.002153,0.020744,0.075806,-0.013337,0.103464,0.093086
1277,4040000000.0,-8.13543838518e-07,0.000199623173103,9.26131199801,0.99999996517,1.2968102886e-07,-6.04706969443e-07,-0.000263929355019,-0.0189421083778,-4.77790808961e-06,6.816177845,-0.002153,0.020744,0.075806,-0.013337,0.103464,0.093086
1278,4050000000.0,-7.31825537059e-07,0.000200805719938,9.32992340814,0.999999964713,1.31696594852e-07,-6.09519102801e-07,-0.000265657890195,-0.0190644040704,-5.15937790668e-06,6.86033630371,-0.002153,0.020744,0.075806,-0.013337,0.103464,0.093086
1279,4060000000.0,-7.56107681354e-07,0.00020011910237,9.3985729651,0.999999964997,1.29304153107e-07,-6.04576917307e-07,-0.00026458500237,-0.0190766360611,-5.68389896305e-06,6.86476325989,-0.002153,0.020744,0.075806,-0.013337,0.103464,0.093086
1280,4070000000.0,-1.23853848066e-07,0.000201263464978,9.4676726599,0.99999996457,1.34782009387e-07,-6.02628025592e-07,-0.00026619432598,-0.0191991534084,-5.27381871551e-06,6.90879917145,-0.002153,0.020744,0.075806,-0.013337,0.103464,0.093086
1281,4080000000.0,4.44799706401e-07,0.000200538663194,9.5367952428,0.999999964871,1.3276498706e-07,-5.99116335875e-07,-0.000265061832373,-0.0192112457007,-4.98771669388e-06,6.91327619553,-0.002153,0.020744,0.075806,-0.013337,0.103464,0.093086
1282,4090000000.0,-2.58552137922e-07,0.000201644957999,9.6063755876,0.999999964443,1.30856083247e-07,-6.03927414133e-07,-0.000266671155986,-0.0193329844624,-4.81605502634e-06,6.95718479156,-0.002153,0.020744,0.075806,-0.013337,0.103464,0.093086
1283,4100000000.0,-1.06790443155e-06,0.000200920156196,9.67599407922,0.999999964744,1.32631191863e-07,-6.00416734886e-07,-0.000265538678631,-0.0193451587111,-4.23431401986e-06,6.96171140671,-0.002153,0.020744,0.075806,-0.013337,0.103464,0.093086
1284,4110000000.0,7.07820611012e-07,0.000201988266774,9.74605508462,0.999999964348,1.35237198884e-07,-6.01978073389e-07,-0.000267028790677,-0.0194674972445,-3.6430358259e-06,7.0054936409,-0.002153,0.020744,0.075806,-0.013337,0.103464,0.093086
1285,4120000000.0,4.91404005487e-07,0.000201225280758,9.81614660218,0.999999964665,1.33916719436e-07,-6.01587450355e-07,-0.000265836691287,-0.0194794125855,-4.1580201473e-06,7.01006889343,-0.002153,0.020744,0.075806,-0.013337,0.103464,0.093086
1286,4130000000.0,9.31523381098e-07,0.000202255323527,9.88668825758,0.999999964268,1.37079649631e-07,-6.06269832115e-07,-0.000267326819587,-0.0196008440107,-2.77519211656e-06,7.0537238121,-0.002153,0.020744,0.075806,-0.013337,0.103464,0.093086
1287,4140000000.0,-6.62899065418e-07,0.000201454153281,9.95727568387,0.999999964586,1.35996419015e-07,-6.04708935148e-07,-0.000266134720197,-0.019613372162,-2.76565538249e-06,7.05834531784,-0.002153,0.020744,0.075806,-0.013337,0.103464,0.093086
1288,4150000000.0,3.70156005403e-07,0.000202407827599,10.0282903652,0.99999996422,1.34242763017e-07,-6.06789246071e-07,-0.000267505620681,-0.01973525621,-1.49726861487e-06,7.10187005997,-0.002153,0.020744,0.075806,-0.013337,0.103464,0.093086
1289,4160000000.0,-6.31330742351e-07,0.000201606773766,10.0993508174,0.999999964554,1.37437576986e-07,-6.04449260755e-07,-0.000266253931761,-0.0197476446629,-2.47001639853e-06,7.10653781891,-0.002153,0.020744,0.075806,-0.013337,0.103464,0.093086
1290,4170000000.0,-9.76281519627e-07,0.000202598632319,10.1708614075,0.999999964188,1.36374679383e-07,-6.10560910053e-07,-0.000267624832244,-0.0198679137975,-2.02178944253e-06,7.14993333817,-0.002153,0.020744,0.075806,-0.013337,0.103464,0.093086
1291,4180000000.0,-1.40603266274e-06,0.000201721210027,10.242402515,0.999999964522,1.35247389232e-07,-6.07569585198e-07,-0.000266373143326,-0.0198809076101,-1.47819514584e-06,7.15464687347,-0.002153,0.020744,0.075806,-0.013337,0.103464,0.093086
1292,4190000000.0,-1.15804775191e-06,0.000202636816537,10.314386131,0.99999996414,1.33820764192e-07,-6.11340473189e-07,-0.000267803649592,-0.0200014840811,-1.82151791295e-06,7.19791078568,-0.002153,0.020744,0.075806,-0.013337,0.103464,0.093086
1293,4200000000.0,-1.03726337386e-06,0.000201797578494,10.3864155232,0.999999964507,1.36903100356e-07,-6.09130480222e-07,-0.000266432749107,-0.020014738664,-2.09808354201e-06,7.20266962051,-0.002153,0.020744,0.075806,-0.013337,0.103464,0.093086
1294,4210000000.0,-2.12488412998e-06,0.000202674884349,10.4588797892,0.99999996414,1.35458773531e-07,-6.13551543405e-07,-0.000267803649591,-0.0201347060502,-1.15394584688e-06,7.24580192566,-0.002153,0.020744,0.075806,-0.013337,0.103464,0.093086
1295,4220000000.0,-1.4323641544e-06,0.000201797578489,10.5313898367,0.999999964507,1.38267568284e-07,-6.06920212198e-07,-0.000266432749107,-0.020148370415,-1.16348269419e-06,7.25060415268,-0.002153,0.020744,0.075806,-0.013337,0.103464,0.093086
1296,4230000000.0,-1.92704921531e-06,0.000202674884344,10.6043271286,0.99999996414,1.36700231634e-07,-6.09260650042e-07,-0.00026780364959,-0.0202677585185,-1.44958494364e-06,7.29360389709,-0.002153,0.020744,0.075806,-0.013337,0.103464,0.093086
1297,4240000000.0,-2.57013488891e-06,0.000201759394248,10.6773178261,0.999999964522,1.39612777172e-07,-6.04709930796e-07,-0.000266373143324,-0.0202813185751,-1.88827505143e-06,7.29844999313,-0.002153,0.020744,0.075806,-0.013337,0.103464,0.093086
1298,4250000000.0,-5.85743077153e-07,0.000202636816535,10.7507357786,0.999999964188,1.37653118404e-07,-6.05359766259e-07,-0.000267624832244,-0.020400993526,-1.97410577218e-06,7.34131765366,-0.002153,0.020744,0.075806,-0.013337,0.103464,0.093086
1299,4260000000.0,-6.35893069756e-07,0.000201721210031,10.8241995021,0.999999964554,1.36206671775e-07,-6.00287744179e-07,-0.000266253931762,-0.0204137079418,-1.76429739573e-06,7.34620666504,-0.002153,0.020744,0.075806,-0.013337,0.103464,0.093086
1300,4270000000.0,3.40931691767e-08,0.000202560448081,10.8980904752,0.99999996422,1.35094834652e-07,-6.05619139671e-07,-0.000267505620681,-0.020531790331,-1.38282769191e-06,7.38894033432,-0.002153,0.020744,0.075806,-0.013337,0.103464,0.093086
1301,4280000000.0,-1.30926230213e-06,0.000201606773768,10.9720195899,0.999999964586,1.34197229829e-07,-6.06008827841e-07,-0.000266134720198,-0.0205451324582,-1.77383424305e-06,7.39387178421,-0.002153,0.020744,0.075806,-0.013337,0.103464,0.093086
1302,4290000000.0,-6.75404550066e-08,0.000202484196048,11.0463912184,0.999999964268,1.37314699944e-07,-6.09390786499e-07,-0.000267326819587,-0.0206642448902,-2.25067128756e-06,7.43647193909,-0.002153,0.020744,0.075806,-0.013337,0.103464,0.093086
1303,4300000000.0,1.06818093926e-06,0.000201530521732,11.1208009937,0.999999964649,1.35693643155e-07,-6.04708822349e-07,-0.000265896297068,-0.0206784214824,-1.37329095784e-06,7.44144630432,-0.002153,0.020744,0.075806,-0.013337,0.103464,0.093086
1304,4310000000.0,9.95497209999e-07,0.00020233157556,11.1956456428,0.9999999643,1.39089939455e-07,-6.09391244633e-07,-0.000267207608021,-0.0207956545055,-9.4413752727e-07,7.48391199112,-0.002153,0.020744,0.075806,-0.013337,0.103464,0.093086
1305,4320000000.0,7.95612944415e-07,0.000201416085478,11.2705360681,0.999999964665,1.43104931405e-07,-6.1056245626e-07,-0.00026583669128,-0.0208089184016,-1.49726861487e-06,7.48892688751,-0.002153,0.020744,0.075806,-0.013337,0.103464,0.093086
1306,4330000000.0,1.31586490681e-06,0.000202178955066,11.3458537431,0.999999964364,1.39166687618e-07,-6.18493832316e-07,-0.000266969184891,-0.0209265761077,-1.6117095365e-06,7.53125905991,-0.002153,0.020744,0.075806,-0.013337,0.103464,0.093086
1307,4340000000.0,1.70891633644e-06,0.00020122528076,11.4212171943,0.999999964744,1.43305287914e-07,-6.19014881464e-07,-0.000265538678622,-0.0209401547909,-1.21116636453e-06,7.53631687164,-0.002153,0.020744,0.075806,-0.013337,0.103464,0.093086
1308,4350000000.0,9.57162903603e-07,0.000201988266776,11.4969926313,0.999999964443,1.47752005519e-07,-6.29159126686e-07,-0.000266671155972,-0.0210570860654,-1.84059138109e-06,7.57851409912,-0.002153,0.020744,0.075806,-0.013337,0.103464,0.093086
1309,4360000000.0,3.58087568486e-08,0.000201034592463,11.5728291032,0.999999964808,1.47656651961e-07,-6.31629605286e-07,-0.000265300255488,-0.0210714172572,-1.76429739573e-06,7.58361291885,-0.002153,0.020744,0.075806,-0.013337,0.103464,0.093086
1310,4370000000.0,-1.65409154818e-07,0.000201797578484,11.6490928248,0.999999964522,1.47196883349e-07,-6.38131498143e-07,-0.000266373143314,-0.0211887769401,-1.54495239846e-06,7.62567567825,-0.002153,0.020744,0.075806,-0.013337,0.103464,0.093086
1311,4380000000.0,1.43471374514e-06,0.000200881971983,11.7253946985,0.999999964887,1.43097321659e-07,-6.36959876343e-07,-0.000265002226579,-0.0212032198906,-1.98364250625e-06,7.63081455231,-0.002153,0.020744,0.075806,-0.013337,0.103464,0.093086
1312,4390000000.0,-8.09097358001e-08,0.000201644957995,11.8021314407,0.999999964586,1.42785834711e-07,-6.4541236966e-07,-0.000266134720187,-0.021318776533,-1.4400482109e-06,7.67274236679,-0.002153,0.020744,0.075806,-0.013337,0.103464,0.093086
1313,4400000000.0,-1.68133359324e-06,0.000200691283673,11.8788987004,0.999999964997,1.42849980733e-07,-6.50093503474e-07,-0.000264585002356,-0.021332392469,-1.31607055343e-06,7.67792224884,-0.002153,0.020744,0.075806,-0.013337,0.103464,0.093086
1314,4410000000.0,-6.96680114487e-07,0.000201416085472,11.9561084739,0.999999964713,1.420910134e-07,-6.56075163308e-07,-0.000265657890182,-0.0214497651905,-1.70707699176e-06,7.71971416473,-0.002153,0.020744,0.075806,-0.013337,0.103464,0.093086
1315,4420000000.0,2.03173012636e-07,0.000200462411156,12.0333487648,0.999999965092,1.40824618244e-07,-6.52563623249e-07,-0.000264227367663,-0.0214649736881,-1.60217280243e-06,7.72493553162,-0.002153,0.020744,0.075806,-0.013337,0.103464,0.093086
1316,4430000000.0,-1.97032009908e-06,0.000201187212953,12.1110086656,0.999999964808,1.3601680543e-07,-6.55033204067e-07,-0.000265300255492,-0.0215807594359,-1.67846678956e-06,7.76659154892,-0.002153,0.020744,0.075806,-0.013337,0.103464,0.093086
1317,4440000000.0,-2.40607264601e-06,0.000200195354411,12.1887296065,0.999999965186,1.33915312228e-07,-6.47360263895e-07,-0.000263869749228,-0.0215961355716,-1.64985658735e-06,7.77185344696,-0.002153,0.020744,0.075806,-0.013337,0.103464,0.093086
1318,4450000000.0,-2.07928878382e-06,0.000200920156203,12.2668625385,0.999999964887,1.35979582649e-07,-6.45410404732e-07,-0.000265002226582,-0.0217120926827,-1.61170953694e-06,7.81337451935,-0.002153,0.020744,0.075806,-0.013337,0.103464,0.093086
1319,4460000000.0,-1.90090554852e-06,0.000200004666105,12.345048876,0.999999965249,1.38196109278e-07,-6.37348500143e-07,-0.000263631326098,-0.0217268113047,-1.9073486337e-06,7.81867742538,-0.002153,0.020744,0.075806,-0.013337,0.103464,0.093086
1320,4470000000.0,-2.86732717214e-06,0.000200691283679,12.4236471992,0.999999964997,1.3577119784e-07,-6.34747246986e-07,-0.000264585002362,-0.0218420717865,-1.01089472215e-06,7.86006259918,-0.002153,0.020744,0.075806,-0.013337,0.103464,0.093086
1321,4480000000.0,-2.07480815817e-06,0.000199737609359,12.5022989333,0.99999996539,1.33367698441e-07,-6.24213403855e-07,-0.000263094890316,-0.0218568146229,-1.27792350302e-06,7.8654050827,-0.002153,0.020744,0.075806,-0.013337,0.103464,0.093086
1322,4490000000.0,-2.42709398179e-06,0.000200424226936,12.581362653,0.999999965107,1.35495449471e-07,-6.21483328522e-07,-0.000264167761888,-0.0219714287668,-1.2207030986e-06,7.90665388107,-0.002153,0.020744,0.075806,-0.013337,0.103464,0.093086
1323,4500000000.0,-2.94898054065e-06,0.000199470552616,12.6604874078,0.999999965469,1.32993553337e-07,-6.12769996911e-07,-0.000262796861406,-0.0219865832478,-8.39233394334e-07,7.91203784943,-0.002153,0.020744,0.075806,-0.013337,0.103464,0.093086
1324,4510000000.0,-7.79789324667e-07,0.000200157170182,12.7400165294,0.999999965218,1.29993494913e-07,-6.08218031772e-07,-0.000263750537671,-0.0221013985574,-1.84059138109e-06,7.95315122604,-0.002153,0.020744,0.075806,-0.013337,0.103464,0.093086
1325,4520000000.0,-6.87540097744e-07,0.000199165428059,12.8196066807,0.999999965594,1.27569771968e-07,-6.00024870345e-07,-0.000262320031407,-0.0221155527979,-1.03950503849e-06,7.95857524872,-0.002153,0.020744,0.075806,-0.013337,0.103464,0.093086
1326,4530000000.0,1.88445635985e-07,0.000199852045624,12.8996011936,0.999999965328,1.25124673789e-07,-5.9872398378e-07,-0.000263333297199,-0.0222294088453,-1.38282769191e-06,7.99955129623,-0.002153,0.020744,0.075806,-0.013337,0.103464,0.093086
1327,4540000000.0,-9.91310535881e-07,0.000198898371313,12.9796491068,0.999999965688,1.22988396245e-07,-5.93651804381e-07,-0.000261962396716,-0.0222440361977,-1.2207030986e-06,8.0050163269,-0.002153,0.020744,0.075806,-0.013337,0.103464,0.093086
1328,4550000000.0,4.98810983629e-07,0.000199584988874,13.0601090163,0.999999965453,1.28359509244e-07,-5.92482991335e-07,-0.000262856467194,-0.0223581064492,-1.47819514673e-06,8.04585647583,-0.002153,0.020744,0.075806,-0.013337,0.103464,0.093086
1329,4560000000.0,1.84053186558e-06,0.000198593130332,13.1406223314,0.999999965828,1.31001325565e-07,-5.88712421812e-07,-0.000261425960926,-0.022372674197,-1.6403197387e-06,8.05136108398,-0.002153,0.020744,0.075806,-0.013337,0.103464,0.093086
1330,4570000000.0,1.30106638352e-07,0.000199279864315,13.2215476268,0.999999965547,1.3406610877e-07,-5.92614480932e-07,-0.000262498832496,-0.0224851965904,-1.15394584732e-06,8.09206485748,-0.002153,0.020744,0.075806,-0.013337,0.103464,0.093086
1331,4580000000.0,1.99822132174e-07,0.000198288005778,13.3025187038,0.999999965906,1.33148305881e-07,-5.92614058104e-07,-0.000261127932012,-0.0224998369813,-1.18255616233e-06,8.09761047363,-0.002153,0.020744,0.075806,-0.013337,0.103464,0.093086
1332,4590000000.0,1.03207403157e-06,0.000198974623347,13.3839017718,0.999999965906,1.33148305881e-07,-5.92614058104e-07,-0.000261127932012,-0.0226126648486,-1.53541566394e-06,8.13817691803,-0.002153,0.020744,0.075806,-0.013337,0.103464,0.093086
1333,4600000000.0,1.71592530762e-06,0.000198173569521,13.4653382453,0.999999965906,1.33148305881e-07,-5.92614058104e-07,-0.000261127932012,-0.0226277299225,-1.02996818985e-06,8.14376354218,-0.002153,0.020744,0.075806,-0.013337,0.103464,0.093086
1334,4610000000.0,1.27617181533e-06,0.000198593130332,13.5471790752,0.999999965906,1.33148305881e-07,-5.92614058104e-07,-0.000261127932012,-0.0227398183197,2.85148621426e-06,8.18419456482,-0.002153,0.020744,0.075806,-0.013337,0.103464,0.093086
1335,4620000000.0,6.66817605577e-07,0.000197868444953,13.62908094,0.999999966185,1.43091702098e-07,-6.12512185472e-07,-0.000260055044175,-0.0227552987635,-2.18391414908e-06,8.18981838226,-0.002153,0.020744,0.075806,-0.013337,0.103464,0.093086
1336,4630000000.0,2.76974126479e-06,0.00019828800577,13.7113795423,0.999999965906,1.39082134365e-07,-6.20313520383e-07,-0.000261127932005,-0.0228675976396,2.28881822117e-06,8.23011398315,-0.002153,0.020744,0.075806,-0.013337,0.103464,0.093086
1337,4640000000.0,2.79572293493e-06,0.000197563203983,13.7937391743,0.999999966263,1.38850996034e-07,-6.23824273349e-07,-0.000259757031519,-0.0228823795915,-2.45094293128e-06,8.23577880859,-0.002153,0.020744,0.075806,-0.013337,0.103464,0.093086
1338,4650000000.0,1.71929992376e-06,0.000197982881224,13.8764955333,0.999999966046,1.38644465797e-07,-6.36698012701e-07,-0.000260591496216,-0.0229937303811,2.33650211889e-06,8.27593708038,-0.002153,0.020744,0.075806,-0.013337,0.103464,0.093086
1339,4660000000.0,2.38061745961e-06,0.000197219895195,13.9593129325,0.999999966418,1.35101317134e-07,-6.42288494335e-07,-0.000259160973694,-0.0230093020946,-1.75476066211e-06,8.28164291382,-0.002153,0.020744,0.075806,-0.013337,0.103464,0.093086
1340,4670000000.0,1.91833023422e-06,0.000197601388205,14.0425346881,0.999999966185,1.3493741774e-07,-6.53861878364e-07,-0.000260055044174,-0.0231201611459,2.08854680661e-06,8.32166385651,-0.002153,0.020744,0.075806,-0.013337,0.103464,0.093086
1341,4680000000.0,3.21498364997e-06,0.000196876586422,14.1258098545,0.999999966541,1.34880272784e-07,-6.59843388151e-07,-0.000258684143687,-0.0231358073652,-2.33650212156e-06,8.32740974426,-0.002153,0.020744,0.075806,-0.013337,0.103464,0.093086
1342,4690000000.0,1.50189112347e-06,0.000197296147231,14.2094817426,0.999999966309,1.35100551135e-07,-6.75057911848e-07,-0.000259578214167,-0.0232460368425,2.4509429295e-06,8.36729335785,-0.002153,0.020744,0.075806,-0.013337,0.103464,0.093086
1343,4700000000.0,1.52653914043e-06,0.000196571345432,14.2932146709,0.99999996668,1.34846453725e-07,-6.79999065389e-07,-0.000258147691643,-0.0232627354562,-2.61306763782e-06,8.37308120728,-0.002153,0.020744,0.075806,-0.013337,0.103464,0.093086
1344,4710000000.0,2.37732384534e-06,0.000196952838449,14.3773367022,0.999999966418,1.34379535333e-07,-6.90532089787e-07,-0.000259160973688,-0.02337327227,2.15530394421e-06,8.41282653809,-0.002153,0.020744,0.075806,-0.013337,0.103464,0.093086
1345,4720000000.0,3.0373077422e-06,0.000196228036648,14.4615273977,0.999999966772,1.34044556011e-07,-6.94953082914e-07,-0.000257790073202,-0.023389108479,-2.92778008948e-06,8.41865539551,-0.002153,0.020744,0.075806,-0.013337,0.103464,0.093086
1346,4730000000.0,2.61608704477e-06,0.000196609529667,14.5461071908,0.999999966772,1.34044556011e-07,-6.94953082914e-07,-0.000257790073202,-0.0234987922013,2.26020801897e-06,8.45826435089,-0.002153,0.020744,0.075806,-0.013337,0.103464,0.093086
1347,4740000000.0,2.0040655464e-06,0.000195884727869,14.6307556482,0.999999966772,1.34044556011e-07,-6.94953082914e-07,-0.000257790073202,-0.0235151145607,-2.58445743562e-06,8.46413326263,-0.002153,0.020744,0.075806,-0.013337,0.103464,0.093086
1348,4750000000.0,2.23938081945e-06,0.00019630440511,14.7157855792,0.999999966772,1.34044556011e-07,-6.94953082914e-07,-0.000257790073202,-0.0236250497401,2.06947311021e-06,8.50360393524,-0.002153,0.020744,0.075806,-0.013337,0.103464,0.093086
1349,4760000000.0,2.28389528445e-06,0.00019557960332,14.8008841745,0.999999967048,1.38864553911e-07,-7.25512907251e-07,-0.000256717185365,-0.023641474545,-2.47001639941e-06,8.50951480865,-0.002153,0.020744,0.075806,-0.013337,0.103464,0.093086
1350,4770000000.0,1.24720516581e-06,0.000195961096326,14.8863718674,0.999999966818,1.38282094664e-07,-7.34615481279e-07,-0.000257611255846,-0.0237508751452,2.30789168931e-06,8.54884719849,-0.002153,0.020744,0.075806,-0.013337,0.103464,0.093086
1351,4780000000.0,6.21144131685e-08,0.00019523629453,14.9719129658,0.999999967185,1.42267857106e-07,-7.36956974223e-07,-0.000256180749574,-0.0237673651427,-2.32696538749e-06,8.55480003357,-0.002153,0.020744,0.075806,-0.013337,0.103464,0.093086
1352,4790000000.0,1.58930151883e-06,0.000195617671123,15.0578508018,0.99999996691,1.41203324033e-07,-7.42288375377e-07,-0.000257253637403,-0.0238771103322,2.0122527058e-06,8.59399318695,-0.002153,0.020744,0.075806,-0.013337,0.103464,0.093086
1353,4800000000.0,1.03954663544e-06,0.000194892985753,15.1438496675,0.999999967307,1.37077635576e-07,-7.42157065192e-07,-0.000255703903317,-0.0238931253552,-2.30789169198e-06,8.5999879837,-0.002153,0.020744,0.075806,-0.013337,0.103464,0.093086
1354,4810000000.0,1.29472835297e-06,0.000195274362337,15.2302452654,0.999999967063,1.41063017822e-07,-7.49830410318e-07,-0.000256657579578,-0.0240010879934,3.00407395937e-06,8.63904380798,-0.002153,0.020744,0.075806,-0.013337,0.103464,0.093086
1355,4820000000.0,-5.05831827979e-07,0.000194549560542,15.3166942636,0.999999967414,1.45220238279e-07,-7.52301984819e-07,-0.000255286679087,-0.0240178536624,-2.47001639941e-06,8.64507961273,-0.002153,0.020744,0.075806,-0.013337,0.103464,0.093086
1356,4830000000.0,4.27085939947e-07,0.000194931053557,15.40353237,0.999999967414,1.45220238279e-07,-7.52301984819e-07,-0.000255286679087,-0.0241278409958,2.18391414641e-06,8.68399620056,-0.002153,0.020744,0.075806,-0.013337,0.103464,0.093086
1357,4840000000.0,-7.16938274081e-07,0.000194206251766,15.490431506,0.999999967414,1.45220238279e-07,-7.52301984819e-07,-0.000255286679087,-0.024144532159,-2.45094293128e-06,8.69007396698,-0.002153,0.020744,0.075806,-0.013337,0.103464,0.093086
1358,4850000000.0,-1.05602590139e-06,0.000194587744774,15.5777273743,0.999999967414,1.45220238279e-07,-7.52301984819e-07,-0.000255286679087,-0.0242522973567,1.98364250359e-06,8.72885227203,-0.002153,0.020744,0.075806,-0.013337,0.103464,0.093086
1359,4860000000.0,-1.54351415205e-06,0.000193862942977,15.6650766482,0.999999967687,1.36032876519e-07,-7.41506410662e-07,-0.000254213791265,-0.0242697298527,-2.23159781942e-06,8.7349729538,-0.002153,0.020744,0.075806,-0.013337,0.103464,0.093086
1360,4870000000.0,-1.18366563129e-06,0.000194244435987,15.7528073956,0.999999967687,1.36032876519e-07,-7.41506410662e-07,-0.000254213791265,-0.0243777278811,2.32696538482e-06,8.7736120224,-0.002153,0.020744,0.075806,-0.013337,0.103464,0.093086
1361,4880000000.0,-1.01461792923e-06,0.000193519634193,15.8406068073,0.999999967687,1.36032876519e-07,-7.41506410662e-07,-0.000254213791265,-0.0243949126452,-2.9563902908e-06,8.77977561951,-0.002153,0.020744,0.075806,-0.013337,0.103464,0.093086
1362,4890000000.0,-1.90557470958e-06,0.000193901127199,15.9287876873,0.999999967687,1.36032876519e-07,-7.41506410662e-07,-0.000254213791265,-0.0245022606105,2.65121457055e-06,8.81827545166,-0.002153,0.020744,0.075806,-0.013337,0.103464,0.093086
1363,4900000000.0,-2.98733230863e-06,0.000193214509633,16.0170372315,0.999999967944,1.29339868038e-07,-7.10555736916e-07,-0.000253200509227,-0.0245200172067,-2.18391414908e-06,8.82448005676,-0.002153,0.020744,0.075806,-0.013337,0.103464,0.093086
1364,4910000000.0,-3.22175312562e-06,0.000193557818417,16.1056682493,0.999999967944,1.29339868038e-07,-7.10555736916e-07,-0.000253200509227,-0.0246273986995,2.47955313082e-06,8.86284160614,-0.002153,0.020744,0.075806,-0.013337,0.103464,0.093086
1365,4920000000.0,-3.62577466717e-06,0.000192833016621,16.194360302,0.999999967944,1.29339868038e-07,-7.10555736916e-07,-0.000253200509227,-0.0246450696141,-2.25067128845e-06,8.86909008026,-0.002153,0.020744,0.075806,-0.013337,0.103464,0.093086
1366,4930000000.0,-3.18245943731e-06,0.000193214509631,16.2834338283,0.999999967944,1.29339868038e-07,-7.10555736916e-07,-0.000253200509227,-0.0247519966215,2.51770006621e-06,8.90731143951,-0.002153,0.020744,0.075806,-0.013337,0.103464,0.093086
1367,4940000000.0,-4.81608618941e-06,0.000192489707846,16.3725683842,0.999999968186,1.30266110565e-07,-6.55810207584e-07,-0.000252246832968,-0.0247695297003,-2.97546375982e-06,8.91360282898,-0.002153,0.020744,0.075806,-0.013337,0.103464,0.093086
1368,4950000000.0,-3.6950348985e-06,0.000192833016628,16.4620844189,0.999999968186,1.30266110565e-07,-6.55810207584e-07,-0.000252246832968,-0.0248762536794,2.40325925915e-06,8.95168495178,-0.002153,0.020744,0.075806,-0.013337,0.103464,0.093086
1369,4960000000.0,-4.65092561086e-06,0.000192146399057,16.5516614833,0.999999968186,1.30266110565e-07,-6.55810207584e-07,-0.000252246832968,-0.0248935949057,-2.21252435129e-06,8.95801830292,-0.002153,0.020744,0.075806,-0.013337,0.103464,0.093086
1370,4970000000.0,-4.78067963172e-06,0.000192489707844,16.6416276506,0.999999968186,1.30266110565e-07,-6.55810207584e-07,-0.000252246832968,-0.0249999891967,2.76565537938e-06,8.99596118927,-0.002153,0.020744,0.075806,-0.013337,0.103464,0.093086
1371,4980000000.0,-6.96617554041e-06,0.000191764906049,16.7316472181,0.999999968471,1.19142387067e-07,-5.84937020376e-07,-0.000251114355625,-0.0250181574374,-1.84059138064e-06,9.00233840942,-0.002153,0.020744,0.075806,-0.013337,0.103464,0.093086
1372,4990000000.0,-6.3969934132e-06,0.000192108214835,16.8220482645,0.999999968471,1.19142387067e-07,-5.84937020376e-07,-0.000251114355625,-0.0251238532364,2.05993637614e-06,9.04014110565,-0.002153,0.020744,0.075806,-0.013337,0.103464,0.093086
1373,5000000000.0,-5.99741201057e-06,0.000191421597265,16.9125103458,0.999999968471,1.19142387067e-07,-5.84937020376e-07,-0.000251114355625,-0.0251418352127,-3.02314743017e-06,9.04656219482,-0.002153,0.020744,0.075806,-0.013337,0.103464,0.093086
1374,5010000000.0,-6.65783510101e-06,0.000191802973861,17.0033538954,0.999999968471,1.19142387067e-07,-5.84937020376e-07,-0.000251114355625,-0.0252469405532,1.59263606569e-06,9.08422374725,-0.002153,0.020744,0.075806,-0.013337,0.103464,0.093086
1375,5020000000.0,-7.48785891247e-06,0.000191116356296,17.0942584799,0.999999968725,1.15684281543e-07,-5.00411887427e-07,-0.000250101073588,-0.0252654515207,-2.20298761722e-06,9.09068870544,-0.002153,0.020744,0.075806,-0.013337,0.103464,0.093086
1376,5030000000.0,-7.47054595251e-06,0.000191459665075,17.1855445379,0.999999968725,1.15684281543e-07,-5.00411887427e-07,-0.000250101073588,-0.0253685060889,2.22206108269e-06,9.12821006775,-0.002153,0.020744,0.075806,-0.013337,0.103464,0.093086
1377,5040000000.0,-7.62283370292e-06,0.000190773047507,17.2768916309,0.999999968725,1.15684281543e-07,-5.00411887427e-07,-0.000250101073588,-0.0253865644336,-2.62260437189e-06,9.13471984863,-0.002153,0.020744,0.075806,-0.013337,0.103464,0.093086
1378,5050000000.0,-8.81392586294e-06,0.000191116356289,17.3686125627,0.999999968725,1.15684281543e-07,-5.00411887427e-07,-0.000250101073588,-0.0254908874631,2.21252434862e-06,9.17210102081,-0.002153,0.020744,0.075806,-0.013337,0.103464,0.093086
1379,5060000000.0,-1.01746187404e-05,0.000190429738726,17.4603945295,0.999999968948,1.31639641854e-07,-4.37867891279e-07,-0.000249207003105,-0.0255096126348,-2.19345088404e-06,9.17865467072,-0.002153,0.020744,0.075806,-0.013337,0.103464,0.093086
1380,5070000000.0,-1.068797485e-05,0.000190734863278,17.5525579698,0.999999968948,1.31639641854e-07,-4.37867891279e-07,-0.000249207003105,-0.0256136190146,2.88009641558e-06,9.21589374542,-0.002153,0.020744,0.075806,-0.013337,0.103464,0.093086
1381,5080000000.0,-9.46359039844e-06,0.000190048245711,17.6447824504,0.999999968948,1.31639641854e-07,-4.37867891279e-07,-0.000249207003105,-0.0256322640926,-1.71661372583e-06,9.22249221802,-0.002153,0.020744,0.075806,-0.013337,0.103464,0.093086
1382,5090000000.0,-1.11853516351e-05,0.000190353486683,17.7373807645,0.999999968948,1.31639641854e-07,-4.37867891279e-07,-0.000249207003105,-0.0257353745401,2.17437741235e-06,9.2595911026,-0.002153,0.020744,0.075806,-0.013337,0.103464,0.093086
1383,5100000000.0,-1.11693723142e-05,0.000189704936922,17.8300401189,0.999999969229,1.25296315268e-07,-3.72457482078e-07,-0.000248074509502,-0.0257536284626,-2.89916988727e-06,9.26623535156,-0.002153,0.020744,0.075806,-0.013337,0.103464,0.093086
1384,5110000000.0,-1.21921973992e-05,0.000190048245711,17.9230733121,0.999999969229,1.25296315268e-07,-3.72457482078e-07,-0.000248074509502,-0.0258564278483,1.81198117666e-06,9.30319309235,-0.002153,0.020744,0.075806,-0.013337,0.103464,0.093086
1385,5120000000.0,-1.14984820279e-05,0.000189399812374,18.016175175,0.999999969229,1.25296315268e-07,-3.72457482078e-07,-0.000248074509502,-0.025875678286,-2.84194948286e-06,9.309882164,-0.002153,0.020744,0.075806,-0.013337,0.103464,0.093086
1386,5130000000.0,-1.18223709791e-05,0.000189743121151,18.1096432473,0.999999969229,1.25296315268e-07,-3.72457482078e-07,-0.000248074509502,-0.0259783063084,1.53541566128e-06,9.34669685364,-0.002153,0.020744,0.075806,-0.013337,0.103464,0.093086
1387,5140000000.0,-1.42444019886e-05,0.000189018319359,18.2031799787,0.999999969495,1.26358615737e-07,-3.10429889461e-07,-0.000247001637932,-0.0259974226356,-1.70707699176e-06,9.35343265533,-0.002153,0.020744,0.075806,-0.013337,0.103464,0.093086
1388,5150000000.0,-1.38693547918e-05,0.000189323443916,18.2970829301,0.999999969495,1.26358615737e-07,-3.10429889461e-07,-0.000247001637932,-0.0261005200446,2.40325925827e-06,9.39010620117,-0.002153,0.020744,0.075806,-0.013337,0.103464,0.093086
1389,5160000000.0,-1.36639083124e-05,0.000188675010579,18.3910469165,0.999999969495,1.26358615737e-07,-3.10429889461e-07,-0.000247001637932,-0.0261195227504,-2.75611864886e-06,9.39688682556,-0.002153,0.020744,0.075806,-0.013337,0.103464,0.093086
1390,5170000000.0,-1.4497266239e-05,0.000188980135132,18.4853847418,0.999999969495,1.26358615737e-07,-3.10429889461e-07,-0.000247001637932,-0.0262217018753,2.07901007165e-06,9.4334192276,-0.002153,0.020744,0.075806,-0.013337,0.103464,0.093086
1391,5180000000.0,-1.55214249737e-05,0.000188331701793,18.5797912313,0.999999969759,1.26416193846e-07,-2.28246289036e-07,-0.00024592875011,-0.0262412987649,-2.44140619809e-06,9.44024658203,-0.002153,0.020744,0.075806,-0.013337,0.103464,0.093086
1392,5190000000.0,-1.56346466653e-05,0.000188636826353,18.6745563064,0.999999969759,1.26416193846e-07,-2.28246289036e-07,-0.00024592875011,-0.0263435430825,2.7275084431e-06,9.47663593292,-0.002153,0.020744,0.075806,-0.013337,0.103464,0.093086
1393,5200000000.0,-1.40313279005e-05,0.000187988276597,18.769390051,0.999999969759,1.26416193846e-07,-2.28246289036e-07,-0.00024592875011,-0.0263630319387,-2.412795995e-06,9.48350906372,-0.002153,0.020744,0.075806,-0.013337,0.103464,0.093086
1394,5210000000.0,-1.5352954712e-05,0.000188293517569,18.8645899998,0.999999969759,1.26416193846e-07,-2.28246289036e-07,-0.00024592875011,-0.0264636985958,2.32696538482e-06,9.51975631714,-0.002153,0.020744,0.075806,-0.013337,0.103464,0.093086
1395,5220000000.0,-1.68653823316e-05,0.000187644967813,18.9598586129,0.999999969759,1.26416193846e-07,-2.28246289036e-07,-0.00024592875011,-0.0264836028218,-2.28881822473e-06,9.52667713165,-0.002153,0.020744,0.075806,-0.013337,0.103464,0.093086
1396,5230000000.0,-1.55595316507e-05,0.000187950208776,19.0554858168,0.999999969759,1.26416193846e-07,-2.28246289036e-07,-0.00024592875011,-0.0265850927681,2.45094292861e-06,9.56278133392,-0.002153,0.020744,0.075806,-0.013337,0.103464,0.093086
1397,5240000000.0,-1.63518230423e-05,0.000187301659023,19.1511816796,0.999999970125,1.14046715738e-07,-8.11710595405e-08,-0.000244438638074,-0.0266043450683,-2.69889824445e-06,9.56974983215,-0.002153,0.020744,0.075806,-0.013337,0.103464,0.093086
1398,5250000000.0,-1.62543774849e-05,0.000187568715775,19.2472437573,0.999999970125,1.14046715738e-07,-8.11710595405e-08,-0.000244438638074,-0.0267042294145,2.34603885296e-06,9.60571098328,-0.002153,0.020744,0.075806,-0.013337,0.103464,0.093086
1399,5260000000.0,-1.8233873913e-05,0.000186958350239,19.3433668646,0.999999970125,1.14046715738e-07,-8.11710595405e-08,-0.000244438638074,-0.0267235301435,-2.26974475659e-06,9.61272716522,-0.002153,0.020744,0.075806,-0.013337,0.103464,0.093086
1400,5270000000.0,-1.74162921063e-05,0.000187225406993,19.439856192,0.999999970125,1.14046715738e-07,-8.11710595405e-08,-0.000244438638074,-0.0268247760832,2.67982477276e-06,9.64854431152,-0.002153,0.020744,0.075806,-0.013337,0.103464,0.093086
1401,5280000000.0,-1.67683110348e-05,0.000186615041457,19.5364065544,0.999999970387,1.23007915964e-07,1.31038164208e-08,-0.000243365750252,-0.0268445201218,-2.24113455349e-06,9.65560913086,-0.002153,0.020744,0.075806,-0.013337,0.103464,0.093086
1402,5290000000.0,-1.71379342824e-05,0.000186882098198,19.6333231262,0.999999970387,1.23007915964e-07,1.31038164208e-08,-0.000243365750252,-0.0269434023648,2.38418578835e-06,9.69128227234,-0.002153,0.020744,0.075806,-0.013337,0.103464,0.093086
1403,5300000000.0,-1.95844994941e-05,0.000186271732684,19.7303007277,0.999999970387,1.23007915964e-07,1.31038164208e-08,-0.000243365750252,-0.026962634176,-2.23159782031e-06,9.69839477539,-0.002153,0.020744,0.075806,-0.013337,0.103464,0.093086
1404,5310000000.0,-1.7326645235e-05,0.000186538789416,19.8276445546,0.999999970387,1.23007915964e-07,1.31038164208e-08,-0.000243365750252,-0.0270634684712,2.27928148711e-06,9.7339258194,-0.002153,0.020744,0.075806,-0.013337,0.103464,0.093086
1405,5320000000.0,-1.7166933052e-05,0.000185890239663,19.9250570405,0.999999970662,1.15781848331e-07,9.84100773094e-08,-0.000242233256646,-0.0270830243826,-2.55584700604e-06,9.74108695984,-0.002153,0.020744,0.075806,-0.013337,0.103464,0.093086
1406,5330000000.0,-1.79824250104e-05,0.000186157296405,20.0228204772,0.999999970662,1.15781848331e-07,9.84100773094e-08,-0.000242233256646,-0.0271812304854,2.69889824178e-06,9.77647304535,-0.002153,0.020744,0.075806,-0.013337,0.103464,0.093086
1407,5340000000.0,-1.90099178567e-05,0.000185546930878,20.1206602076,0.999999970662,1.15781848331e-07,9.84100773094e-08,-0.000242233256646,-0.0272009205073,-2.87055968418e-06,9.78368282318,-0.002153,0.020744,0.075806,-0.013337,0.103464,0.093086
1408,5350000000.0,-1.90840734788e-05,0.000185813987633,20.2188432647,0.999999970662,1.15781848331e-07,9.84100773094e-08,-0.000242233256646,-0.0272997319698,2.26020801808e-06,9.81892490387,-0.002153,0.020744,0.075806,-0.013337,0.103464,0.093086
1409,5360000000.0,-1.93914300972e-05,0.000185203622095,20.3171102447,0.999999970662,1.15781848331e-07,9.84100773094e-08,-0.000242233256646,-0.0273201055825,-2.89916988727e-06,9.82618522644,-0.002153,0.020744,0.075806,-0.013337,0.103464,0.093086
1410,5370000000.0,-1.87454494984e-05,0.00018547067884,20.4157205516,0.999999970662,1.15781848331e-07,9.84100773094e-08,-0.000242233256646,-0.0274184476584,2.45094292861e-06,9.86128234863,-0.002153,0.020744,0.075806,-0.013337,0.103464,0.093086
1411,5380000000.0,-2.02188110521e-05,0.000184860313313,20.5144071467,0.999999971007,1.32241786965e-07,2.10628340935e-07,-0.000240802750388,-0.0274388566613,-2.1457672128e-06,9.86859321594,-0.002153,0.020744,0.075806,-0.013337,0.103464,0.093086
1412,5390000000.0,-1.88526942075e-05,0.000185127253642,20.6134447033,0.999999971007,1.32241786965e-07,2.10628340935e-07,-0.000240802750388,-0.0275363437831,2.47001639675e-06,9.90354442596,-0.002153,0.020744,0.075806,-0.013337,0.103464,0.093086
1413,5400000000.0,-1.95847194462e-05,0.000184517004524,20.7125509188,0.999999971007,1.32241786965e-07,2.10628340935e-07,-0.000240802750388,-0.027556437999,-2.12669374555e-06,9.91090583801,-0.002153,0.020744,0.075806,-0.013337,0.103464,0.093086
1414,5410000000.0,-1.93846075511e-05,0.000184783944855,20.8120080905,0.999999971007,1.32241786965e-07,2.10628340935e-07,-0.000240802750388,-0.0276539251208,2.16484067828e-06,9.94571113586,-0.002153,0.020744,0.075806,-0.013337,0.103464,0.093086
1415,5420000000.0,-1.93964965618e-05,0.000184173579322,20.9115415558,0.999999971265,1.18752427336e-07,2.78901221396e-07,-0.000239729862559,-0.0276748649776,-2.45094293216e-06,9.95312309265,-0.002153,0.020744,0.075806,-0.013337,0.103464,0.093086
1416,5430000000.0,-1.84550483375e-05,0.000184440636078,21.0114183478,0.999999971265,1.18752427336e-07,2.78901221396e-07,-0.000239729862559,-0.0277715492994,1.61170953383e-06,9.98778343201,-0.002153,0.020744,0.075806,-0.013337,0.103464,0.093086
1417,5440000000.0,-1.7725601019e-05,0.000183868454764,21.1113714335,0.999999971265,1.18752427336e-07,2.78901221396e-07,-0.000239729862559,-0.0277920309454,-2.05039964563e-06,9.99524688721,-0.002153,0.020744,0.075806,-0.013337,0.103464,0.093086
1418,5450000000.0,-1.79501577442e-05,0.000184097327292,21.2116678406,0.999999971265,1.18752427336e-07,2.78901221396e-07,-0.000239729862559,-0.0278878305107,1.91688536599e-06,10.0297603607,-0.002153,0.020744,0.075806,-0.013337,0.103464,0.093086
1419,5460000000.0,-2.02940566361e-05,0.000183486961754,21.312040536,0.999999971521,1.28873478777e-07,3.37805763084e-07,-0.000238656974736,-0.0279088448733,-1.7261504599e-06,10.037276268,-0.002153,0.020744,0.075806,-0.013337,0.103464,0.093086
